logType,withinRunBlockN,absBlockN,blockType,trialCount,blockTrialCount,fixStart,fixEnd,fixOnset,partResponded,partResp,corrResp,acc,globalStim,localStim,stimOnset,respOnset,RT,stimStart,stimEnd,congruency,task,target,switchType,subject_ID,pauseDuration,partResp_1,partResp_2
task,1,1,B,1.0,1.0,1697898637.06867,1697898639.5688,0.0152301788330078,1.0,114.0,114.0,1.0,s,h,2.53191518783569,3.86459398269653,1333.0,1697898639.58536,1697898640.93504,i,g,s,n,D0100,,,
task,1,1,B,2.0,2.0,1697898642.18537,1697898642.68543,5.13192868232727,1.0,114.0,114.0,1.0,h,s,5.6486074924469,6.74850106239319,1100.0,1697898642.70205,1697898643.81813,i,l,s,s,D0100,,,
task,1,1,B,3.0,3.0,1697898645.08541,1697898645.58549,8.03196382522583,1.0,115.0,115.0,1.0,h,s,8.54863405227661,9.78142404556274,1233.0,1697898645.60208,1697898646.85159,i,g,h,s,D0100,,,
task,1,1,B,4.0,4.0,1697898648.11876,1697898648.61882,11.0653200149536,1.0,115.0,115.0,1.0,s,h,11.5819931030273,12.9314200878143,1349.0,1697898648.63544,1697898650.00155,i,l,h,s,D0100,,,
task,1,1,B,5.0,5.0,1697898651.26878,1697898651.76894,14.2153387069702,1.0,114.0,114.0,1.0,s,s,14.7320096492767,15.9982211589813,1266.0,1697898651.78545,1697898653.06859,c,g,s,s,D0100,,,
task,1,1,B,6.0,6.0,1697898654.35215,1697898654.85249,17.298704624176,1.0,114.0,114.0,1.0,h,s,17.815370798111,19.3984160423279,1583.0,1697898654.86881,1697898656.46825,i,l,s,s,D0100,,,
task,1,1,B,7.0,7.0,1697898657.73552,1697898658.23557,20.6820728778839,1.0,115.0,115.0,1.0,h,h,21.1987359523773,22.1814520359039,983.0,1697898658.25218,1697898659.25157,c,g,h,s,D0100,,,
task,1,1,B,8.0,8.0,1697898660.51887,1697898661.01893,23.4654231071472,1.0,115.0,115.0,1.0,s,h,23.9820916652679,24.9650571346283,983.0,1697898661.03553,1697898662.03493,i,l,h,s,D0100,,,
task,1,1,B,9.0,9.0,1697898663.30222,1697898663.80225,26.2487764358521,1.0,115.0,115.0,1.0,h,s,26.7654473781586,28.6983580589294,1933.0,1697898663.81889,1697898665.7683,i,g,h,s,D0100,,,
task,1,1,B,10.0,10.0,1697898667.03558,1697898667.53563,29.982141494751,1.0,115.0,114.0,0.0,s,h,30.4988207817078,31.6651120185852,1166.0,1697898667.55226,1697898668.73504,i,g,s,r,D0100,,,
task,1,1,B,11.0,11.0,1697898670.00228,1697898670.50229,32.9488325119019,1.0,114.0,115.0,0.0,h,h,33.4655070304871,35.0316231250763,1566.0,1697898670.51895,1697898672.10164,c,l,h,s,D0100,,,
task,1,1,B,12.0,12.0,1697898673.38565,1697898673.8857,36.3322060108185,1.0,114.0,115.0,0.0,h,h,36.8488705158234,38.7649891376495,1916.0,1697898673.90231,1697898675.83497,c,g,h,s,D0100,,,
task,1,1,B,13.0,13.0,1697898677.11902,1697898677.61908,40.065577507019,0.0,,114.0,0.0,h,s,40.5822379589081,43.0485999584198,,1697898677.63568,1697898680.11845,i,l,s,s,D0100,,,
task,1,1,B,14.0,14.0,1697898681.40238,1697898681.90258,44.3489420413971,1.0,115.0,114.0,0.0,s,h,44.8656105995178,46.0318629741669,1166.0,1697898681.91905,1697898683.10184,i,g,s,s,D0100,,,
task,1,1,B,15.0,15.0,1697898684.38574,1697898684.8858,47.3322985172272,1.0,114.0,115.0,0.0,h,s,47.8489696979523,48.7823390960693,933.0,1697898684.90241,1697898685.85186,i,g,h,r,D0100,,,
task,1,1,B,16.0,16.0,1697898687.30243,1697898687.8025,50.2489891052246,1.0,114.0,114.0,1.0,h,s,50.7656586170197,52.3483729362488,1583.0,1697898687.8191,1697898689.41851,i,l,s,s,D0100,,,
task,1,1,B,17.0,17.0,1697898690.70246,1697898691.20252,53.6490185260773,1.0,114.0,114.0,1.0,s,h,54.1656882762909,55.6484961509705,1483.0,1697898691.21913,1697898692.71848,i,g,s,s,D0100,,,
task,1,1,B,18.0,18.0,1697898694.00249,1697898694.5025,56.9490456581116,1.0,114.0,114.0,1.0,h,s,57.4657173156738,58.8654360771179,1400.0,1697898694.51916,1697898695.93528,i,l,s,s,D0100,,,
task,1,1,B,19.0,19.0,1697898697.21919,1697898697.71924,60.1657490730286,1.0,115.0,115.0,1.0,h,s,60.6824126243591,62.1318800449371,1449.0,1697898697.73586,1697898699.20186,i,g,h,s,D0100,,,
task,1,1,B,20.0,20.0,1697898700.48588,1697898700.98589,63.4324357509613,1.0,115.0,115.0,1.0,h,s,63.9491074085236,65.6984889507294,1749.0,1697898701.00255,1697898702.76853,i,g,h,r,D0100,,,
task,1,1,B,21.0,21.0,1697898704.06925,1697898704.56926,67.0158040523529,1.0,114.0,115.0,0.0,h,h,67.5324740409851,68.4819250106812,949.0,1697898704.58592,1697898705.55196,c,l,h,s,D0100,,,
task,1,1,B,22.0,22.0,1697898706.85261,1697898707.35264,69.799165725708,0.0,,115.0,0.0,s,h,70.3158309459686,72.7819950580597,,1697898707.36927,1697898709.85195,i,l,h,r,D0100,,,
task,1,1,B,23.0,23.0,1697898711.15264,1697898711.65271,74.0992014408112,1.0,115.0,115.0,1.0,h,s,74.6158668994904,76.065269947052,1449.0,1697898711.66931,1697898713.13537,i,g,h,s,D0100,,,
task,1,1,B,24.0,24.0,1697898714.436,1697898714.93605,77.3825557231903,1.0,114.0,114.0,1.0,h,s,77.8992280960083,79.9989190101624,2100.0,1697898714.95267,1697898717.06871,i,l,s,s,D0100,,,
task,1,1,B,25.0,25.0,1697898718.36938,1697898718.86939,81.3159399032593,1.0,115.0,115.0,1.0,h,h,81.8326017856598,83.1153881549835,1283.0,1697898718.88604,1697898720.18544,c,g,h,s,D0100,,,
task,1,1,B,26.0,26.0,1697898721.50273,1697898722.00276,84.4492907524109,1.0,114.0,114.0,1.0,s,s,84.9659600257874,86.5819849967957,1616.0,1697898722.0194,1697898723.65216,c,l,s,s,D0100,,,
task,1,1,B,27.0,27.0,1697898724.96943,1697898725.46947,87.9159908294678,1.0,115.0,115.0,1.0,h,s,88.4326572418213,89.5988011360168,1166.0,1697898725.4861,1697898726.66877,i,g,h,s,D0100,,,
task,1,1,B,28.0,28.0,1697898727.96946,1697898728.46953,90.9160208702087,1.0,114.0,114.0,1.0,h,s,91.4326870441437,93.0320861339569,1599.0,1697898728.48613,1697898730.10215,i,l,s,s,D0100,,,
task,1,1,B,29.0,29.0,1697898731.40282,1697898731.90287,94.3493797779083,1.0,115.0,114.0,0.0,s,h,94.8660471439362,95.9654710292816,1099.0,1697898731.91949,1697898733.03549,i,g,s,s,D0100,,,
task,1,1,B,30.0,30.0,1697898734.33617,1697898734.83622,97.2827315330505,0.0,,114.0,0.0,h,s,97.7994160652161,100.265561103821,,1697898734.85286,1697898737.33549,i,l,s,s,D0100,,,
task,1,1,B,31.0,31.0,1697898738.65289,1697898739.15294,101.599444627762,1.0,114.0,115.0,0.0,s,h,102.116108417511,103.398864030838,1283.0,1697898739.16955,1697898740.46892,i,l,h,r,D0100,,,
task,1,1,B,32.0,32.0,1697898741.78624,1697898742.28627,104.732799768448,1.0,115.0,114.0,0.0,s,s,105.249468326569,105.582349061966,333.0,1697898742.30291,1697898742.65235,c,g,s,s,D0100,,,
task,1,1,B,33.0,33.0,1697898743.98626,1697898744.48629,106.932816743851,1.0,115.0,115.0,1.0,h,s,107.449487447739,108.848911046982,1399.0,1697898744.50293,1697898745.91895,i,g,h,r,D0100,,,
task,1,1,B,34.0,34.0,1697898747.25296,1697898747.75301,110.199513673782,1.0,115.0,115.0,1.0,h,s,110.716179847717,111.54900097847,833.0,1697898747.76962,1697898748.61902,i,g,h,r,D0100,,,
task,1,1,B,35.0,35.0,1697898749.93632,1697898750.43635,112.882873535156,1.0,115.0,114.0,0.0,s,h,113.399542570114,114.865817070007,1466.0,1697898750.45299,1697898751.93576,i,g,s,r,D0100,,,
task,1,1,B,36.0,36.0,1697898753.253,1697898753.75307,116.199559688568,1.0,114.0,115.0,0.0,s,h,116.716232538223,117.66558098793,949.0,1697898753.76968,1697898754.73574,i,l,h,s,D0100,,,
task,1,1,B,37.0,37.0,1697898756.0697,1697898756.56972,119.016257047653,1.0,115.0,115.0,1.0,h,s,119.53292131424,121.399260044098,1866.0,1697898756.58636,1697898758.46906,i,g,h,s,D0100,,,
task,1,1,B,38.0,38.0,1697898759.7864,1697898760.28643,122.732957601547,1.0,114.0,114.0,1.0,s,h,123.249619960785,125.215713977814,1966.0,1697898760.30306,1697898762.28574,i,g,s,r,D0100,,,
task,1,1,B,39.0,39.0,1697898763.61976,1697898764.11977,126.566315889359,1.0,114.0,114.0,1.0,h,s,127.082990646362,128.249086141586,1166.0,1697898764.13643,1697898765.31896,i,l,s,s,D0100,,,
task,1,1,B,40.0,40.0,1697898766.65313,1697898767.15317,129.599683523178,1.0,114.0,114.0,1.0,h,s,130.116348028183,131.515785932541,1399.0,1697898767.16979,1697898768.58586,i,l,s,r,D0100,,,
task,1,1,B,41.0,41.0,1697898769.93648,1697898770.43649,132.88304066658,1.0,114.0,114.0,1.0,s,s,133.399711608887,134.499256134033,1100.0,1697898770.45315,1697898771.56922,c,l,s,r,D0100,,,
task,1,1,B,42.0,42.0,1697898772.90317,1697898773.40319,135.849730014801,1.0,115.0,115.0,1.0,h,h,136.366403102875,137.549158096313,1183.0,1697898773.41985,1697898774.61923,c,g,h,s,D0100,,,
task,1,1,B,43.0,43.0,1697898775.9532,1697898776.45325,138.899756193161,1.0,114.0,114.0,1.0,h,s,139.416436672211,140.799386978149,1383.0,1697898776.46988,1697898777.86931,i,l,s,s,D0100,,,
task,1,1,B,44.0,44.0,1697898779.20323,1697898779.70324,142.149783611298,1.0,115.0,114.0,0.0,s,h,142.666459560394,144.282789945602,1616.0,1697898779.7199,1697898781.35264,i,g,s,s,D0100,,,
task,1,1,B,45.0,45.0,1697898782.6866,1697898783.18663,145.633158922195,1.0,114.0,114.0,1.0,s,h,146.149820804596,147.499441146851,1350.0,1697898783.20326,1697898784.56936,i,g,s,r,D0100,,,
task,1,1,B,46.0,46.0,1697898785.90328,1697898786.4033,148.849841594696,1.0,115.0,115.0,1.0,s,h,149.36651468277,150.515923023224,1149.0,1697898786.41996,1697898787.58605,i,l,h,s,D0100,,,
task,1,1,B,47.0,47.0,1697898788.91998,1697898789.41999,151.866535186768,1.0,115.0,115.0,1.0,h,h,152.383214473724,154.099310159683,1716.0,1697898789.43666,1697898791.16933,c,g,h,s,D0100,,,
task,1,1,B,48.0,48.0,1697898792.52002,1697898793.02007,155.466579437256,1.0,114.0,115.0,0.0,h,h,155.983239412308,157.699391126633,1716.0,1697898793.03668,1697898794.76945,c,l,h,s,D0100,,,
task,1,1,B,49.0,49.0,1697898796.12004,1697898796.62006,159.066601037979,1.0,114.0,114.0,1.0,s,s,159.58327126503,160.449429988861,866.0,1697898796.63671,1697898797.51949,c,g,s,s,D0100,,,
task,1,1,B,50.0,50.0,1697898798.87007,1697898799.37008,161.816626787186,1.0,115.0,115.0,1.0,s,h,162.333302497864,164.349530935287,2016.0,1697898799.38675,1697898801.4195,i,l,h,s,D0100,,,
task,1,1,B,51.0,51.0,1697898802.77011,1697898803.27012,165.71666765213,1.0,114.0,115.0,0.0,h,s,166.233324766159,167.799361944199,1566.0,1697898803.28677,1697898804.86941,i,g,h,s,D0100,,,
task,1,1,B,52.0,52.0,1697898806.22013,1697898806.72018,169.16668844223,1.0,114.0,114.0,1.0,h,s,169.683358669281,171.849468946457,2166.0,1697898806.7368,1697898808.91948,i,l,s,s,D0100,,,
task,1,1,B,53.0,53.0,1697898810.27018,1697898810.77022,173.216732978821,1.0,115.0,114.0,0.0,s,h,173.733394861221,176.166239023209,2433.0,1697898810.78684,1697898813.2362,i,g,s,s,D0100,,,
task,1,1,B,54.0,54.0,1697898814.58687,1697898815.08693,177.533431768417,1.0,114.0,114.0,1.0,s,s,178.050104856491,178.849815130234,800.0,1697898815.10355,1697898815.91964,c,g,s,r,D0100,,,
task,1,1,B,55.0,55.0,1697898817.27024,1697898817.77028,180.21680021286,1.0,114.0,115.0,0.0,h,h,180.733465909958,182.46621799469,1733.0,1697898817.78691,1697898819.53625,c,l,h,s,D0100,,,
task,1,1,B,56.0,56.0,1697898820.88693,1697898821.38694,183.833483457565,1.0,115.0,115.0,1.0,h,h,184.350157976151,185.682911157608,1333.0,1697898821.4036,1697898822.75297,c,g,h,s,D0100,,,
task,1,1,B,57.0,57.0,1697898824.12029,1697898824.6203,187.066843748093,1.0,115.0,115.0,1.0,s,h,187.583522796631,189.416217088699,1833.0,1697898824.63697,1697898826.48632,i,l,h,s,D0100,,,
task,1,1,B,58.0,58.0,1697898827.85366,1697898828.35371,190.800221204758,1.0,114.0,114.0,1.0,s,h,191.316884279251,192.966465950012,1650.0,1697898828.37033,1697898830.03637,i,g,s,s,D0100,,,
task,1,1,B,59.0,59.0,1697898831.40369,1697898831.90372,194.350246429443,1.0,114.0,114.0,1.0,s,h,194.866919279099,195.832956075668,966.0,1697898831.92036,1697898832.90306,i,g,s,r,D0100,,,
task,1,1,B,60.0,60.0,1697898834.27038,1697898834.77045,197.216938734055,1.0,115.0,115.0,1.0,h,h,197.733608961105,199.316656112671,1583.0,1697898834.78705,1697898836.38649,c,l,h,s,D0100,,,
task,1,1,B,61.0,61.0,1697898837.75375,1697898838.2538,200.700310468674,1.0,114.0,114.0,1.0,s,h,201.21696639061,203.116457939148,1899.0,1697898838.27041,1697898840.18642,i,g,s,s,D0100,,,
task,1,1,B,62.0,62.0,1697898841.55378,1697898842.05385,204.500334024429,1.0,115.0,115.0,1.0,s,h,205.017004728317,206.68313908577,1666.0,1697898842.07045,1697898843.75315,i,l,h,s,D0100,,,
task,1,1,B,63.0,63.0,1697898845.12049,1697898845.62049,208.067044734955,1.0,115.0,115.0,1.0,s,h,208.583703279495,210.24985408783,1666.0,1697898845.63715,1697898847.31982,i,l,h,r,D0100,,,
task,1,1,B,64.0,64.0,1697898848.70385,1697898849.20385,211.650403022766,1.0,114.0,114.0,1.0,s,h,212.167069673538,213.666562080383,1499.0,1697898849.22051,1697898850.73664,i,g,s,s,D0100,,,
task,1,1,B,65.0,65.0,1697898852.10387,1697898852.60392,215.050427913666,1.0,115.0,115.0,1.0,s,h,215.56710600853,216.716675043106,1150.0,1697898852.62055,1697898853.78663,i,l,h,s,D0100,,,
task,1,1,B,66.0,66.0,1697898855.17057,1697898855.67063,218.11713051796,1.0,114.0,114.0,1.0,h,s,218.633789539337,220.216516017914,1583.0,1697898855.68723,1697898857.28666,i,l,s,r,D0100,,,
task,1,1,B,67.0,67.0,1697898858.6706,1697898859.17062,221.617152690887,1.0,114.0,114.0,1.0,h,s,222.133823871613,223.33321595192,1199.0,1697898859.18727,1697898860.40336,i,l,s,r,D0100,,,
task,1,1,B,68.0,68.0,1697898861.78729,1697898862.28735,224.733843564987,1.0,114.0,114.0,1.0,s,h,225.250514507294,226.500225067139,1250.0,1697898862.30396,1697898863.57001,i,g,s,s,D0100,,,
task,1,1,B,69.0,69.0,1697898864.95398,1697898865.45403,227.900540351868,1.0,115.0,115.0,1.0,h,h,228.417209625244,229.733355045319,1316.0,1697898865.47065,1697898866.80334,c,l,h,s,D0100,,,
task,1,1,B,70.0,70.0,1697898868.18735,1697898868.68738,231.13390827179,1.0,114.0,114.0,1.0,h,s,231.65058016777,233.816728115082,2166.0,1697898868.70402,1697898870.88671,i,l,s,r,D0100,,,
task,1,1,B,71.0,71.0,1697898872.27071,1697898872.77072,235.217268466949,1.0,115.0,115.0,1.0,s,h,235.73394203186,236.900028944016,1166.0,1697898872.78738,1697898873.97006,i,l,h,r,D0100,,,
task,1,1,B,72.0,72.0,1697898875.35408,1697898875.85414,238.30063867569,1.0,115.0,115.0,1.0,h,s,238.817300796509,240.40030002594,1583.0,1697898875.87074,1697898877.47018,i,g,h,s,D0100,,,
task,1,1,B,73.0,73.0,1697898878.8541,1697898879.35415,241.800661325455,1.0,115.0,115.0,1.0,h,h,242.31732916832,244.733494997025,2416.0,1697898879.37077,1697898881.80346,c,l,h,s,D0100,,,
task,1,1,B,74.0,74.0,1697898883.18748,1697898883.6875,246.134032726288,1.0,115.0,115.0,1.0,h,h,246.650703191757,248.416959047318,1766.0,1697898883.70415,1697898885.48692,c,g,h,s,D0100,,,
task,1,1,B,75.0,75.0,1697898886.88751,1697898887.38754,249.834071874619,1.0,115.0,115.0,1.0,h,h,250.350738286972,252.650483131409,2300.0,1697898887.40418,1697898889.72031,c,l,h,s,D0100,,,
task,1,1,B,76.0,76.0,1697898891.12088,1697898891.62092,254.067439556122,1.0,114.0,114.0,1.0,h,s,254.584109067917,255.26717209816,683.0,1697898891.63755,1697898892.33689,i,l,s,r,D0100,,,
task,1,1,B,77.0,77.0,1697898893.73757,1697898894.23758,256.684123039246,1.0,114.0,114.0,1.0,s,s,257.200800895691,258.48352098465,1283.0,1697898894.25424,1697898895.55365,c,g,s,s,D0100,,,
task,1,1,B,78.0,78.0,1697898897.12094,1697898897.62098,260.067495822906,1.0,114.0,114.0,1.0,s,h,260.584157705307,262.316853046417,1733.0,1697898897.6376,1697898899.38702,i,g,s,r,D0100,,,
task,1,1,B,79.0,79.0,1697898900.78763,1697898901.28769,263.734189748764,1.0,115.0,115.0,1.0,s,h,264.250856637955,265.683884143829,1433.0,1697898901.3043,1697898902.75374,i,l,h,s,D0100,,,
task,1,1,B,80.0,80.0,1697898904.15433,1697898904.65439,267.100884914398,1.0,114.0,114.0,1.0,h,s,267.617552280426,269.067003965378,1449.0,1697898904.671,1697898906.13704,i,l,s,r,D0100,,,
task,1,1,B,81.0,81.0,1697898907.5377,1697898908.0377,270.484256982803,1.0,114.0,114.0,1.0,s,s,271.000911712646,271.933773994446,933.0,1697898908.05435,1697898909.0038,c,l,s,r,D0100,,,
task,1,1,B,82.0,82.0,1697898910.40438,1697898910.90439,273.350933790207,1.0,114.0,115.0,0.0,h,s,273.867602825165,275.933947086334,2066.0,1697898910.92105,1697898913.00377,i,g,h,s,D0100,,,
task,1,1,B,83.0,83.0,1697898914.40441,1697898914.90448,277.350968837738,1.0,114.0,114.0,1.0,s,h,277.867642879486,279.567094087601,1699.0,1697898914.92109,1697898916.63709,i,g,s,r,D0100,,,
task,1,1,B,84.0,84.0,1697898918.05445,1697898918.55447,281.001003742218,1.0,114.0,114.0,1.0,s,s,281.517674684525,283.417204141617,1900.0,1697898918.57112,1697898920.48714,c,l,s,s,D0100,,,
task,1,1,B,85.0,85.0,1697898921.90448,1697898922.40453,284.85103559494,1.0,115.0,115.0,1.0,h,s,285.367710113525,286.650460958481,1283.0,1697898922.42115,1697898923.72049,i,g,h,s,D0100,,,
task,1,1,B,86.0,86.0,1697898925.13784,1697898925.6379,288.084400892258,1.0,114.0,114.0,1.0,h,s,288.601072788239,289.733771085739,1133.0,1697898925.65452,1697898926.80381,i,l,s,s,D0100,,,
task,1,1,B,87.0,87.0,1697898928.22121,1697898928.72125,291.167767047882,1.0,114.0,114.0,1.0,s,h,291.684425830841,293.317243099213,1633.0,1697898928.73787,1697898930.38719,i,g,s,s,D0100,,,
task,1,1,B,88.0,88.0,1697898931.80457,1697898932.30462,294.751125574112,1.0,114.0,114.0,1.0,h,s,295.267795085907,297.267436981201,2000.0,1697898932.32124,1697898934.33731,i,l,s,s,D0100,,,
task,1,1,B,89.0,89.0,1697898935.75461,1697898936.25464,298.701162576675,1.0,115.0,115.0,1.0,h,s,299.217829704285,301.050698041916,1833.0,1697898936.27127,1697898938.12062,i,g,h,s,D0100,,,
task,1,1,B,90.0,90.0,1697898939.53797,1697898940.03798,302.484524726868,1.0,115.0,115.0,1.0,s,h,303.001205682755,304.633940935135,1633.0,1697898940.05465,1697898941.70401,i,l,h,s,D0100,,,
task,1,1,B,91.0,91.0,1697898943.12133,1697898943.62137,306.067890167236,1.0,115.0,115.0,1.0,h,h,306.584559202194,307.984176158905,1400.0,1697898943.638,1697898945.05408,c,g,h,s,D0100,,,
task,1,1,B,92.0,92.0,1697898946.47136,1697898946.9714,309.417919635773,1.0,115.0,115.0,1.0,s,h,309.934590339661,311.534129142761,1600.0,1697898946.98803,1697898948.60412,i,l,h,s,D0100,,,
task,1,1,B,93.0,93.0,1697898950.02139,1697898950.52143,312.967950105667,1.0,114.0,114.0,1.0,s,h,313.484621286392,314.417371034622,933.0,1697898950.53806,1697898951.48741,i,g,s,s,D0100,,,
task,1,1,B,94.0,94.0,1697898952.92143,1697898953.42143,315.867983579636,1.0,114.0,114.0,1.0,s,h,316.384649753571,317.500919103622,1116.0,1697898953.43809,1697898954.57084,i,g,s,r,D0100,,,
task,1,1,B,95.0,95.0,1697898956.00478,1697898956.5048,318.951336622238,1.0,115.0,115.0,1.0,h,h,319.46800494194,320.967417955399,1499.0,1697898956.52145,1697898958.03744,c,l,h,s,D0100,,,
task,1,1,B,96.0,96.0,1697898959.47148,1697898959.97153,322.418037652969,1.0,115.0,115.0,1.0,h,s,322.934703350067,324.584100961685,1649.0,1697898959.98815,1697898961.65421,i,g,h,s,D0100,,,
task,1,1,B,97.0,97.0,1697898963.08817,1697898963.58818,326.034731626511,1.0,114.0,114.0,1.0,h,s,326.55140042305,327.900784015656,1349.0,1697898963.60484,1697898964.97088,i,l,s,s,D0100,,,
task,1,1,B,98.0,98.0,1697898966.40488,1697898966.90488,329.351433992386,1.0,115.0,115.0,1.0,h,s,329.868094444275,331.767575025558,1899.0,1697898966.92154,1697898968.8375,i,g,h,s,D0100,,,
task,1,1,B,99.0,99.0,1697898970.27157,1697898970.77163,333.218123435974,1.0,115.0,115.0,1.0,h,h,333.734793663025,335.184209108353,1449.0,1697898970.78824,1697898972.25427,c,l,h,s,D0100,,,
task,1,1,B,100.0,100.0,1697898973.68826,1697898974.18827,336.634819984436,1.0,114.0,114.0,1.0,s,h,337.151492118835,338.434360980988,1283.0,1697898974.20494,1697898975.50436,i,g,s,s,D0100,,,
task,1,1,B,101.0,101.0,1697898976.93829,1697898977.4383,339.884845972061,1.0,115.0,115.0,1.0,s,h,340.401528120041,341.28452205658,883.0,1697898977.45497,1697898978.35436,i,l,h,s,D0100,,,
task,1,1,B,102.0,102.0,1697898979.80499,1697898980.30506,342.751549720764,1.0,115.0,115.0,1.0,s,h,343.26820898056,344.567532062531,1299.0,1697898980.32165,1697898981.6377,i,l,h,r,D0100,,,
task,1,1,B,103.0,103.0,1697898983.08835,1697898983.5884,346.034903526306,1.0,115.0,115.0,1.0,h,s,346.551580190659,348.500946044922,1949.0,1697898983.60502,1697898985.57102,i,g,h,s,D0100,,,
task,1,1,B,104.0,104.0,1697898987.02171,1697898987.52175,349.968266248703,1.0,115.0,114.0,0.0,s,h,350.484946489334,351.567623138428,1083.0,1697898987.53839,1697898988.63781,i,g,s,r,D0100,,,
task,1,1,B,105.0,105.0,1697898990.0884,1697898990.58841,353.034955501556,1.0,115.0,114.0,0.0,h,s,353.551637887955,355.451041936874,1899.0,1697898990.60508,1697898992.52111,i,l,s,s,D0100,,,
task,1,1,B,106.0,106.0,1697898993.97177,1697898994.47181,356.918329954147,1.0,115.0,114.0,0.0,s,h,357.434998273849,359.051102161407,1616.0,1697898994.48844,1697898996.12122,i,g,s,s,D0100,,,
task,1,1,B,107.0,107.0,1697898997.5718,1697898998.07187,360.518356800079,0.0,,115.0,0.0,s,h,361.035030603409,363.501407146454,,1697898998.08847,1697899000.57123,i,l,h,s,D0100,,,
task,1,1,B,108.0,108.0,1697899002.02186,1697899002.52191,364.968412876129,1.0,114.0,114.0,1.0,s,h,365.485065937042,367.051321029663,1566.0,1697899002.53851,1697899004.12128,i,g,s,s,D0100,,,
task,1,1,B,109.0,109.0,1697899005.57187,1697899006.07188,368.518430233002,1.0,115.0,115.0,1.0,s,h,369.035101652145,371.018123149872,1983.0,1697899006.08854,1697899008.08796,i,l,h,s,D0100,,,
task,1,1,B,110.0,110.0,1697899009.55524,1697899010.05527,372.501801013947,1.0,115.0,115.0,1.0,s,h,373.018470525742,373.901200056076,883.0,1697899010.07191,1697899010.97126,i,l,h,r,D0100,,,
task,1,1,B,111.0,111.0,1697899012.4386,1697899012.93863,375.385152339935,1.0,114.0,114.0,1.0,s,h,375.901826381683,376.884616136551,983.0,1697899012.95527,1697899013.95469,i,g,s,s,D0100,,,
task,1,1,B,112.0,112.0,1697899015.42197,1697899015.92203,378.368525266647,1.0,114.0,114.0,1.0,s,s,378.885180950165,380.384627103806,1499.0,1697899015.93862,1697899017.45471,c,l,s,s,D0100,,,
task,2,2,C,113.0,1.0,1697899024.00535,1697899026.50538,386.951909780502,1.0,114.0,114.0,1.0,h,s,389.468600511551,390.551373004913,1083.0,1697899026.52204,1697899027.6214,i,l,s,n,D0100,,,
task,2,2,C,114.0,2.0,1697899029.08873,1697899029.58873,392.035286426544,1.0,115.0,115.0,1.0,h,h,392.551963090897,393.90148806572,1350.0,1697899029.60541,1697899030.97142,c,l,h,r,D0100,,,
task,2,2,C,115.0,3.0,1697899032.43875,1697899032.93876,395.385306835175,1.0,114.0,114.0,1.0,s,s,395.90197968483,397.068323135376,1166.0,1697899032.95542,1697899034.13816,c,l,s,r,D0100,,,
task,2,2,C,116.0,4.0,1697899035.60544,1697899036.10548,398.552000522614,1.0,114.0,114.0,1.0,s,s,399.068676710129,400.185027122498,1116.0,1697899036.12212,1697899037.25482,c,l,s,r,D0100,,,
task,2,2,C,117.0,5.0,1697899038.72214,1697899039.2222,401.668694019318,1.0,114.0,114.0,1.0,s,s,402.185366153717,402.968194007874,783.0,1697899039.23881,1697899040.0382,c,l,s,r,D0100,,,
task,2,2,C,118.0,6.0,1697899041.50549,1697899042.00555,404.452050209045,1.0,115.0,115.0,1.0,h,h,404.968724012375,406.184870004654,1216.0,1697899042.02217,1697899043.25483,c,l,h,r,D0100,,,
task,2,2,C,119.0,7.0,1697899044.73886,1697899045.2389,407.685414075851,1.0,114.0,114.0,1.0,s,s,408.202080726624,409.118258953094,916.0,1697899045.25552,1697899046.18819,c,l,s,r,D0100,,,
task,2,2,C,120.0,8.0,1697899047.67221,1697899048.17245,410.618768453598,1.0,115.0,115.0,1.0,h,h,411.13544511795,412.201533079147,1066.0,1697899048.18889,1697899049.27164,c,l,h,r,D0100,,,
task,2,2,C,121.0,9.0,1697899050.75557,1697899051.25561,413.702122449875,1.0,114.0,114.0,1.0,s,s,414.218796730042,415.252128124237,1033.0,1697899051.27224,1697899052.32158,c,l,s,r,D0100,,,
task,2,2,C,122.0,10.0,1697899053.8056,1697899054.30563,416.75215959549,1.0,114.0,114.0,1.0,s,s,417.26882982254,418.385452985764,1117.0,1697899054.32227,1697899055.45505,c,g,s,s,D0100,,,
task,2,2,C,123.0,11.0,1697899056.93896,1697899057.43901,419.885513067245,1.0,115.0,115.0,1.0,h,s,420.402179956436,421.368299007416,966.0,1697899057.45562,1697899058.43831,i,g,h,r,D0100,,,
task,2,2,C,124.0,12.0,1697899059.92231,1697899060.42237,422.868864297867,1.0,115.0,115.0,1.0,h,h,423.385537624359,424.551815032959,1166.0,1697899060.43898,1697899061.62175,c,l,h,s,D0100,,,
task,2,2,C,125.0,13.0,1697899063.10567,1697899063.60572,426.052229404449,1.0,115.0,115.0,1.0,h,h,426.568898677826,427.73571896553,1167.0,1697899063.62234,1697899064.80508,c,l,h,r,D0100,,,
task,2,2,C,126.0,14.0,1697899066.28903,1697899066.78906,429.235584020615,1.0,115.0,115.0,1.0,s,h,429.752265930176,430.95178103447,1200.0,1697899066.80571,1697899068.02167,i,l,h,r,D0100,,,
task,2,2,C,127.0,15.0,1697899069.50572,1697899070.00579,432.45227766037,1.0,115.0,115.0,1.0,h,h,432.968947172165,434.101654052734,1133.0,1697899070.02239,1697899071.17174,c,g,h,s,D0100,,,
task,2,2,C,128.0,16.0,1697899072.67242,1697899073.17246,435.618979692459,1.0,114.0,114.0,1.0,s,s,436.135642528534,437.235074996948,1099.0,1697899073.18909,1697899074.30511,c,l,s,s,D0100,,,
task,2,2,C,129.0,17.0,1697899075.7891,1697899076.28916,438.735661506653,1.0,115.0,115.0,1.0,h,s,439.252335786819,440.901836156845,1650.0,1697899076.30578,1697899077.9719,i,g,h,s,D0100,,,
task,2,2,C,130.0,18.0,1697899079.47248,1697899079.9725,442.419034957886,1.0,115.0,115.0,1.0,h,h,442.935700178146,443.718491077423,783.0,1697899079.98914,1697899080.7885,c,g,h,r,D0100,,,
task,2,2,C,131.0,19.0,1697899082.28917,1697899082.78921,445.235726594925,1.0,114.0,114.0,1.0,s,s,445.752388954163,446.618366003036,866.0,1697899082.80583,1697899083.68858,c,g,s,r,D0100,,,
task,2,2,C,132.0,20.0,1697899085.18918,1697899085.6892,448.135738134384,1.0,115.0,115.0,1.0,h,s,448.652411937714,449.935094118118,1283.0,1697899085.70585,1697899087.00522,i,g,h,r,D0100,,,
task,2,2,C,133.0,21.0,1697899088.50589,1697899089.00591,451.452445268631,1.0,115.0,115.0,1.0,h,h,451.969106674194,453.035378932953,1066.0,1697899089.02255,1697899090.1053,c,l,h,s,D0100,,,
task,2,2,C,134.0,22.0,1697899091.60591,1697899092.10594,454.552469730377,1.0,115.0,115.0,1.0,h,h,455.069128751755,455.901919126511,833.0,1697899092.12257,1697899092.97195,c,l,h,r,D0100,,,
task,2,2,C,135.0,23.0,1697899094.4726,1697899094.97261,457.419159173965,1.0,114.0,114.0,1.0,s,s,457.93582201004,459.018571138382,1083.0,1697899094.98926,1697899096.08862,c,l,s,r,D0100,,,
task,2,2,C,136.0,24.0,1697899097.58929,1697899098.08933,460.535850763321,1.0,114.0,114.0,1.0,s,s,461.05251121521,461.65204501152,600.0,1697899098.10595,1697899098.72195,c,l,s,r,D0100,,,
task,2,2,C,137.0,25.0,1697899100.2393,1697899100.73933,463.185859441757,1.0,115.0,115.0,1.0,h,h,463.702532529831,464.852149963379,1150.0,1697899100.75598,1697899101.92204,c,l,h,r,D0100,,,
task,2,2,C,138.0,26.0,1697899103.42266,1697899103.92268,466.369219064713,1.0,114.0,114.0,1.0,h,s,466.885891675949,467.935375928879,1049.0,1697899103.93933,1697899105.00539,i,l,s,r,D0100,,,
task,2,2,C,139.0,27.0,1697899106.52268,1697899107.0227,469.469241857529,1.0,114.0,114.0,1.0,s,s,469.985914230347,471.251973152161,1266.0,1697899107.03936,1697899108.32202,c,g,s,s,D0100,,,
task,2,2,C,140.0,28.0,1697899109.83938,1697899110.33943,472.785939216614,1.0,114.0,114.0,1.0,s,s,473.302610635757,473.985347986221,683.0,1697899110.35605,1697899111.05541,c,g,s,r,D0100,,,
task,2,2,C,141.0,29.0,1697899112.57275,1697899113.07279,475.519304513931,1.0,114.0,114.0,1.0,s,s,476.035970687866,476.918785095215,883.0,1697899113.08941,1697899113.98876,c,g,s,r,D0100,,,
task,2,2,C,142.0,30.0,1697899115.50609,1697899116.00614,478.452651023865,1.0,115.0,115.0,1.0,h,h,478.969321727753,480.402090072632,1433.0,1697899116.02276,1697899117.47221,c,l,h,s,D0100,,,
task,2,2,C,143.0,31.0,1697899118.98945,1697899119.48947,481.936011791229,1.0,114.0,114.0,1.0,s,s,482.452690839767,484.035529136658,1583.0,1697899119.50613,1697899121.10549,c,l,s,r,D0100,,,
task,2,2,C,144.0,32.0,1697899122.62282,1697899123.12284,485.569376468658,1.0,114.0,115.0,0.0,h,h,486.086049556732,487.152091026306,1066.0,1697899123.13949,1697899124.22219,c,l,h,r,D0100,,,
task,2,2,C,145.0,33.0,1697899125.73951,1697899126.23956,488.686070680618,1.0,115.0,115.0,1.0,h,h,489.202739953995,490.585628986359,1383.0,1697899126.25618,1697899127.65562,c,l,h,r,D0100,,,
task,2,2,C,146.0,34.0,1697899129.20621,1697899129.70621,492.152764320374,1.0,115.0,115.0,1.0,s,h,492.669439077377,494.585550069809,1916.0,1697899129.72288,1697899131.65565,i,l,h,r,D0100,,,
task,2,2,C,147.0,35.0,1697899133.17292,1697899133.67294,496.119478702545,1.0,115.0,115.0,1.0,h,s,496.636140823364,497.935497999191,1299.0,1697899133.68958,1697899135.00565,i,g,h,s,D0100,,,
task,2,2,C,148.0,36.0,1697899136.53961,1697899137.03962,499.486166238785,1.0,114.0,114.0,1.0,s,s,500.002836942673,501.135574102402,1133.0,1697899137.05628,1697899138.20567,c,g,s,r,D0100,,,
task,2,2,C,149.0,37.0,1697899139.73963,1697899140.23969,502.686189889908,1.0,115.0,115.0,1.0,h,h,503.202862501144,504.93582201004,1733.0,1697899140.25631,1697899142.00573,c,g,h,r,D0100,,,
task,2,2,C,150.0,38.0,1697899143.53966,1697899144.03969,506.486219882965,1.0,114.0,114.0,1.0,s,h,507.002895832062,509.252557992935,2250.0,1697899144.05634,1697899146.32244,i,g,s,r,D0100,,,
task,2,2,C,151.0,39.0,1697899147.85638,1697899148.35643,510.802936792374,1.0,115.0,115.0,1.0,h,h,511.319600582123,512.319002151489,999.0,1697899148.37304,1697899149.38904,c,g,h,r,D0100,,,
task,2,2,C,152.0,40.0,1697899150.92307,1697899151.42308,513.869630336761,1.0,114.0,114.0,1.0,s,s,514.386292219162,515.219113111496,833.0,1697899151.43974,1697899152.28909,c,l,s,s,D0100,,,
task,2,2,C,153.0,41.0,1697899153.83976,1697899154.3398,516.786316633224,1.0,114.0,114.0,1.0,s,s,517.302982330322,518.402469158173,1099.0,1697899154.35643,1697899155.47243,c,l,s,r,D0100,,,
task,2,2,C,154.0,42.0,1697899157.02312,1697899157.52315,519.969673633575,1.0,114.0,114.0,1.0,s,s,520.486341714859,521.086326122284,600.0,1697899157.53978,1697899158.15579,c,l,s,r,D0100,,,
task,2,2,C,155.0,43.0,1697899159.6898,1697899160.18982,522.636355161667,1.0,115.0,115.0,1.0,h,h,523.153034210205,524.05238699913,899.0,1697899160.20648,1697899161.12254,c,g,h,s,D0100,,,
task,2,2,C,156.0,44.0,1697899162.67317,1697899163.17319,525.619722604752,1.0,115.0,115.0,1.0,h,s,526.136385202408,527.636053085327,1500.0,1697899163.18983,1697899164.70591,i,g,h,r,D0100,,,
task,2,2,C,157.0,45.0,1697899166.25652,1697899166.75653,529.203079938889,1.0,115.0,115.0,1.0,h,s,529.719749450684,530.569221019745,849.0,1697899166.77319,1697899167.63916,i,g,h,r,D0100,,,
task,2,2,C,158.0,46.0,1697899169.18988,1697899169.68991,532.136440038681,1.0,114.0,114.0,1.0,s,s,532.653102874756,533.402697086334,750.0,1697899169.70655,1697899170.47258,c,g,s,r,D0100,,,
task,2,2,C,159.0,47.0,1697899172.02324,1697899172.52326,534.969792604446,1.0,114.0,114.0,1.0,s,s,535.486459970474,536.503126144409,1017.0,1697899172.5399,1697899173.57264,c,g,s,r,D0100,,,
task,2,2,C,160.0,48.0,1697899175.28993,1697899175.78999,538.236488342285,1.0,114.0,114.0,1.0,s,h,538.75315284729,539.736098051071,983.0,1697899175.8066,1697899176.80603,i,g,s,r,D0100,,,
task,2,2,C,161.0,49.0,1697899178.35661,1697899178.85666,541.303171634674,1.0,115.0,115.0,1.0,s,h,541.819843769073,543.269361972809,1450.0,1697899178.87329,1697899180.33929,i,l,h,s,D0100,,,
task,2,2,C,162.0,50.0,1697899181.88998,1697899182.39001,544.836541414261,1.0,114.0,114.0,1.0,s,s,545.353202819824,546.685940027237,1333.0,1697899182.40665,1697899183.75606,c,l,s,r,D0100,,,
task,2,2,C,163.0,51.0,1697899185.30667,1697899185.80674,548.25323176384,1.0,114.0,114.0,1.0,h,s,548.769903659821,549.65270113945,883.0,1697899185.82335,1697899186.72279,i,l,s,r,D0100,,,
task,2,2,C,164.0,52.0,1697899188.27336,1697899188.77341,551.219918251038,1.0,115.0,115.0,1.0,h,h,551.73659658432,553.13601398468,1399.0,1697899188.79004,1697899190.20605,c,l,h,r,D0100,,,
task,2,2,C,165.0,53.0,1697899191.77339,1697899192.27343,554.71994972229,1.0,115.0,115.0,1.0,s,h,555.236623764038,556.28626203537,1050.0,1697899192.29007,1697899193.35615,i,l,h,r,D0100,,,
task,2,2,C,166.0,54.0,1697899194.92342,1697899195.42349,557.869977235794,1.0,114.0,114.0,1.0,s,s,558.386653661728,559.186017036438,799.0,1697899195.4401,1697899196.25605,c,l,s,r,D0100,,,
task,2,2,C,167.0,55.0,1697899197.82344,1697899198.32349,560.770000457764,1.0,114.0,114.0,1.0,s,s,561.286671161652,563.069623947144,1783.0,1697899198.34011,1697899200.13956,c,g,s,s,D0100,,,
task,2,2,C,168.0,56.0,1697899201.70681,1697899202.20688,564.653367996216,1.0,114.0,114.0,1.0,s,s,565.170038700104,565.869389057159,699.0,1697899202.22348,1697899202.93959,c,g,s,r,D0100,,,
task,2,2,C,169.0,57.0,1697899204.50683,1697899205.00687,567.453387022018,1.0,115.0,115.0,1.0,h,s,567.970057487488,568.902771949768,933.0,1697899205.0235,1697899205.9729,i,g,h,r,D0100,,,
task,2,2,C,170.0,58.0,1697899207.54019,1697899208.04023,570.486744165421,1.0,114.0,114.0,1.0,s,s,571.003418207169,572.002861022949,999.0,1697899208.05686,1697899209.07291,c,g,s,r,D0100,,,
task,2,2,C,171.0,59.0,1697899210.64021,1697899211.14026,573.586768627167,1.0,115.0,115.0,1.0,h,h,574.103441476822,575.086470127106,983.0,1697899211.15688,1697899212.15628,c,g,h,r,D0100,,,
task,2,2,C,172.0,60.0,1697899213.72357,1697899214.22358,576.670126676559,1.0,115.0,115.0,1.0,h,h,577.186799764633,578.070125102997,883.0,1697899214.24024,1697899215.13961,c,g,h,r,D0100,,,
task,2,2,C,173.0,61.0,1697899216.7236,1697899217.22365,579.670157194138,1.0,115.0,115.0,1.0,h,h,580.186822652817,581.602896928787,1416.0,1697899217.24027,1697899218.6729,c,l,h,s,D0100,,,
task,2,2,C,174.0,62.0,1697899220.25696,1697899220.75701,583.203516483307,1.0,115.0,115.0,1.0,h,h,583.720185279846,584.952980995178,1233.0,1697899220.77363,1697899222.02296,c,g,h,s,D0100,,,
task,2,2,C,175.0,63.0,1697899223.59032,1697899224.09038,586.53687620163,1.0,114.0,114.0,1.0,s,s,587.05354475975,587.902903079987,849.0,1697899224.10699,1697899224.97301,c,g,s,r,D0100,,,
task,2,2,C,176.0,64.0,1697899226.55701,1697899227.05705,589.503571748734,1.0,114.0,114.0,1.0,s,s,590.020237922668,590.953284978867,933.0,1697899227.07368,1697899228.0231,c,g,s,r,D0100,,,
task,2,2,C,177.0,65.0,1697899229.60705,1697899230.10711,592.553603410721,1.0,114.0,114.0,1.0,h,s,593.070261716843,594.503337144852,1433.0,1697899230.1237,1697899231.57307,i,l,s,s,D0100,,,
task,2,2,C,178.0,66.0,1697899233.15707,1697899233.65715,596.103627681732,1.0,115.0,115.0,1.0,h,h,596.620299816132,597.469710111618,849.0,1697899233.67374,1697899234.53979,c,l,h,r,D0100,,,
task,2,2,C,179.0,67.0,1697899236.12375,1697899236.62376,599.070311307907,1.0,115.0,115.0,1.0,h,h,599.586982011795,600.720032930374,1133.0,1697899236.64042,1697899237.78983,c,l,h,r,D0100,,,
task,2,2,C,180.0,68.0,1697899239.37378,1697899239.87384,602.320341825485,1.0,114.0,114.0,1.0,s,s,602.837009191513,603.770033121109,933.0,1697899239.89045,1697899240.83986,c,l,s,r,D0100,,,
task,2,2,C,181.0,69.0,1697899242.42381,1697899242.92382,605.370370864868,1.0,115.0,115.0,1.0,s,h,605.887032032013,606.870051145554,983.0,1697899242.94047,1697899243.9399,i,l,h,r,D0100,,,
task,2,2,C,182.0,70.0,1697899245.52384,1697899246.02388,608.470398187637,1.0,115.0,115.0,1.0,h,h,608.987056970596,609.903138160706,916.0,1697899246.0405,1697899246.97329,c,l,h,r,D0100,,,
task,2,2,C,183.0,71.0,1697899248.57386,1697899249.0739,611.520421981812,1.0,114.0,114.0,1.0,s,s,612.037078142166,613.136750936508,1100.0,1697899249.09052,1697899250.20656,c,g,s,s,D0100,,,
task,2,2,C,184.0,72.0,1697899251.80722,1697899252.30726,614.753773927689,1.0,115.0,115.0,1.0,h,h,615.270440578461,616.119840145111,849.0,1697899252.32388,1697899253.18993,c,g,h,r,D0100,,,
task,2,2,C,185.0,73.0,1697899254.79058,1697899255.29062,617.737138986588,1.0,115.0,115.0,1.0,h,h,618.253797769547,619.436610937119,1183.0,1697899255.30724,1697899256.50656,c,g,h,r,D0100,,,
task,2,2,C,186.0,74.0,1697899258.10726,1697899258.60729,621.053819656372,1.0,114.0,114.0,1.0,s,s,621.57049036026,622.603285074234,1033.0,1697899258.62393,1697899259.67332,c,g,s,r,D0100,,,
task,2,2,C,187.0,75.0,1697899261.27396,1697899261.77399,624.220521688461,1.0,114.0,114.0,1.0,s,s,624.737179756165,625.353527069092,616.0,1697899261.79062,1697899262.42338,c,g,s,r,D0100,,,
task,2,2,C,188.0,76.0,1697899264.02397,1697899264.524,626.97053194046,1.0,114.0,114.0,1.0,s,h,627.487202644348,628.95356297493,1466.0,1697899264.54065,1697899266.02338,i,g,s,r,D0100,,,
task,2,2,C,189.0,77.0,1697899267.64068,1697899268.14069,630.587232351303,1.0,114.0,114.0,1.0,s,s,631.103900909424,631.903521060944,800.0,1697899268.15734,1697899268.9734,c,g,s,r,D0100,,,
task,2,2,C,190.0,78.0,1697899270.57404,1697899271.07408,633.520596981049,1.0,114.0,114.0,1.0,h,s,634.0372569561,635.836687088013,1799.0,1697899271.0907,1697899272.90672,i,l,s,s,D0100,,,
task,2,2,C,191.0,79.0,1697899274.50739,1697899275.00743,637.453949689865,1.0,115.0,115.0,1.0,h,h,637.970621824265,639.03676199913,1066.0,1697899275.02406,1697899276.10674,c,g,h,s,D0100,,,
task,2,2,C,192.0,80.0,1697899277.72409,1697899278.22411,640.670650005341,1.0,115.0,115.0,1.0,h,s,641.187316894531,642.203565120697,1016.0,1697899278.24076,1697899279.2735,i,g,h,r,D0100,,,
task,2,2,C,193.0,81.0,1697899280.89078,1697899281.39084,643.837335109711,1.0,114.0,114.0,1.0,s,h,644.354009151459,645.303955078125,950.0,1697899281.40745,1697899282.37346,i,g,s,r,D0100,,,
task,2,2,C,194.0,82.0,1697899284.00748,1697899284.5075,646.954032421112,1.0,115.0,115.0,1.0,h,s,647.470699548721,648.336928129196,866.0,1697899284.52414,1697899285.4069,i,g,h,r,D0100,,,
task,2,2,C,195.0,83.0,1697899287.19083,1697899287.69084,650.137390375137,1.0,114.0,114.0,1.0,s,s,650.654057502747,651.453670978546,800.0,1697899287.7075,1697899288.52361,c,g,s,r,D0100,,,
task,2,2,C,196.0,84.0,1697899290.1742,1697899290.67423,653.12075304985,1.0,114.0,114.0,1.0,s,s,653.637412786484,654.837126016617,1200.0,1697899290.69086,1697899291.90693,c,g,s,r,D0100,,,
task,2,2,C,197.0,85.0,1697899293.52421,1697899294.02423,656.470768928528,1.0,114.0,114.0,1.0,s,s,656.987441539764,658.420169115067,1433.0,1697899294.04088,1697899295.49022,c,l,s,s,D0100,,,
task,2,2,C,198.0,86.0,1697899297.15758,1697899297.65763,660.10413980484,1.0,115.0,115.0,1.0,h,h,660.620801448822,661.787122011185,1166.0,1697899297.67424,1697899298.85699,c,l,h,r,D0100,,,
task,2,2,C,199.0,87.0,1697899300.47427,1697899300.97428,663.420827388763,1.0,115.0,115.0,1.0,h,h,663.937499523163,665.253827095032,1316.0,1697899300.99094,1697899302.32369,c,g,h,s,D0100,,,
task,2,2,C,200.0,88.0,1697899303.94097,1697899304.44099,666.887523889542,1.0,115.0,115.0,1.0,h,h,667.404194831848,669.087197065353,1683.0,1697899304.45764,1697899306.15705,c,g,h,r,D0100,,,
task,2,2,C,201.0,89.0,1697899307.791,1697899308.29103,670.737555980682,1.0,115.0,115.0,1.0,h,h,671.254228115082,671.937258958817,683.0,1697899308.30767,1697899309.00704,c,g,h,r,D0100,,,
task,2,2,C,202.0,90.0,1697899310.80769,1697899311.30771,673.754244804382,1.0,114.0,114.0,1.0,s,s,674.270916938782,675.436924934387,1166.0,1697899311.32436,1697899312.50713,c,g,s,r,D0100,,,
task,2,2,C,203.0,91.0,1697899314.14105,1697899314.64107,677.087605476379,1.0,114.0,114.0,1.0,s,s,677.604279994965,678.820425987244,1216.0,1697899314.65772,1697899315.89041,c,l,s,s,D0100,,,
task,2,2,C,204.0,92.0,1697899317.52441,1697899318.02442,680.47096991539,1.0,115.0,115.0,1.0,h,h,680.987643241882,682.154011011124,1166.0,1697899318.04109,1697899319.22388,c,l,h,r,D0100,,,
task,2,2,C,205.0,93.0,1697899320.85777,1697899321.3578,683.804330825806,1.0,115.0,115.0,1.0,h,h,684.320996761322,685.304006099701,983.0,1697899321.37444,1697899322.37385,c,l,h,r,D0100,,,
task,2,2,C,206.0,94.0,1697899324.0078,1697899324.50782,686.954353094101,1.0,114.0,114.0,1.0,s,s,687.471029758453,689.037158966064,1566.0,1697899324.52447,1697899326.10721,c,g,s,s,D0100,,,
task,2,2,C,207.0,95.0,1697899327.75783,1697899328.25784,690.704391002655,1.0,115.0,115.0,1.0,h,h,691.221059799194,692.670570135117,1450.0,1697899328.2745,1697899329.74052,c,g,h,r,D0100,,,
task,2,2,C,208.0,96.0,1697899331.37453,1697899331.87455,694.32108259201,1.0,114.0,114.0,1.0,s,s,694.837754964828,696.070703983307,1233.0,1697899331.8912,1697899333.14057,c,g,s,r,D0100,,,
task,2,2,C,209.0,97.0,1697899334.77455,1697899335.27462,697.721109867096,1.0,115.0,115.0,1.0,s,h,698.23778128624,699.287374019623,1050.0,1697899335.29122,1697899336.3573,i,l,h,s,D0100,,,
task,2,2,C,210.0,98.0,1697899338.00791,1697899338.50794,700.954468488693,1.0,114.0,114.0,1.0,s,s,701.471142530441,703.170659065247,1700.0,1697899338.52459,1697899340.2406,c,l,s,r,D0100,,,
task,2,2,C,211.0,99.0,1697899341.89128,1697899342.39131,704.837840080261,1.0,115.0,115.0,1.0,h,h,705.354510784149,706.437195062637,1083.0,1697899342.40795,1697899343.5073,c,l,h,r,D0100,,,
task,2,2,C,212.0,100.0,1697899345.15799,1697899345.65806,708.104543209076,1.0,114.0,114.0,1.0,h,s,708.621206045151,709.787416934967,1166.0,1697899345.67465,1697899346.85739,i,l,s,r,D0100,,,
task,2,2,C,213.0,101.0,1697899348.50801,1697899349.00803,711.454570531845,1.0,114.0,114.0,1.0,h,s,711.971229791641,712.9209420681,950.0,1697899349.02467,1697899349.99077,i,l,s,r,D0100,,,
task,2,2,C,214.0,102.0,1697899351.64136,1697899352.14137,714.587914466858,1.0,115.0,115.0,1.0,h,s,715.104585647583,716.637407064438,1533.0,1697899352.15803,1697899353.70738,i,g,h,s,D0100,,,
task,2,2,C,215.0,103.0,1697899355.35807,1697899355.85808,718.304622650146,1.0,115.0,115.0,1.0,h,h,718.821286678314,719.787452936172,966.0,1697899355.87473,1697899356.85748,c,g,h,r,D0100,,,
task,2,2,C,216.0,104.0,1697899358.50809,1697899359.00813,721.454644680023,1.0,115.0,115.0,1.0,h,h,721.971311569214,722.754325151443,783.0,1697899359.02475,1697899359.82416,c,g,h,r,D0100,,,
task,2,2,C,217.0,105.0,1697899361.47478,1697899361.97485,724.421338558197,1.0,115.0,115.0,1.0,h,h,724.937999486923,725.754366159439,816.0,1697899361.99144,1697899362.8242,c,g,h,r,D0100,,,
task,2,2,C,218.0,106.0,1697899364.47479,1697899364.97484,727.421350955963,1.0,114.0,114.0,1.0,s,s,727.9380235672,729.254229068756,1316.0,1697899364.99147,1697899366.32423,c,l,s,s,D0100,,,
task,2,2,C,219.0,107.0,1697899367.9915,1697899368.49156,730.938059806824,1.0,115.0,115.0,1.0,h,h,731.454719543457,732.537439107895,1083.0,1697899368.50816,1697899369.60753,c,l,h,r,D0100,,,
task,2,2,C,220.0,108.0,1697899371.27485,1697899371.77489,734.221408843994,1.0,115.0,115.0,1.0,h,h,734.738081216812,735.737679004669,1000.0,1697899371.79152,1697899372.80759,c,l,h,r,D0100,,,
task,2,2,C,221.0,109.0,1697899374.47489,1697899374.97491,737.421445846558,1.0,114.0,114.0,1.0,h,s,737.938104152679,739.020856142044,1083.0,1697899374.99155,1697899376.0909,i,l,s,r,D0100,,,
task,2,2,C,222.0,110.0,1697899377.75824,1697899378.25825,740.704798936844,1.0,114.0,114.0,1.0,s,s,741.221462726593,742.187520027161,966.0,1697899378.27491,1697899379.25757,c,l,s,r,D0100,,,
task,2,2,C,223.0,111.0,1697899380.92492,1697899381.42495,743.87148141861,1.0,114.0,114.0,1.0,s,s,744.388156890869,746.171123981476,1783.0,1697899381.4416,1697899383.24096,c,g,s,s,D0100,,,
task,2,2,C,224.0,112.0,1697899384.9083,1697899385.40833,747.854853153229,1.0,114.0,114.0,1.0,s,s,748.371522903442,749.137809991837,766.0,1697899385.42497,1697899386.2077,c,g,s,r,D0100,,,
task,3,3,A,225.0,1.0,1697899390.54167,1697899393.0417,753.488229990005,1.0,114.0,114.0,1.0,h,s,756.004909515381,757.587861061096,1583.0,1697899393.05835,1697899394.65774,i,l,s,n,D0100,,,
task,3,3,A,226.0,2.0,1697899396.32505,1697899396.82505,759.271602153778,1.0,115.0,115.0,1.0,s,h,759.788275718689,761.137696027756,1349.0,1697899396.84172,1697899398.20772,i,l,h,r,D0100,,,
task,3,3,A,227.0,3.0,1697899399.87508,1697899400.37512,762.821635723114,1.0,114.0,114.0,1.0,s,s,763.338304281235,764.521239995956,1183.0,1697899400.39175,1697899401.59117,c,l,s,r,D0100,,,
task,3,3,A,228.0,4.0,1697899403.25844,1697899403.75845,766.204996109009,1.0,115.0,115.0,1.0,s,h,766.721670866013,767.721317052841,1000.0,1697899403.77511,1697899404.79113,i,l,h,r,D0100,,,
task,3,3,A,229.0,5.0,1697899406.45847,1697899406.9585,769.405030012131,1.0,115.0,115.0,1.0,h,h,769.921689033508,770.921113014221,999.0,1697899406.97513,1697899407.99114,c,l,h,r,D0100,,,
task,3,3,A,230.0,6.0,1697899409.67515,1697899410.17518,772.621711730957,1.0,115.0,115.0,1.0,s,h,773.138384342194,774.254698991776,1116.0,1697899410.19183,1697899411.3246,i,l,h,r,D0100,,,
task,3,3,A,231.0,7.0,1697899413.00852,1697899413.50855,775.955081939697,1.0,115.0,115.0,1.0,h,s,776.471746444702,777.688143014908,1216.0,1697899413.52519,1697899414.75796,i,g,h,s,D0100,,,
task,3,3,A,232.0,8.0,1697899416.44188,1697899416.94191,779.388441801071,1.0,115.0,115.0,1.0,h,h,779.905107736588,781.304578065872,1399.0,1697899416.95855,1697899418.37457,c,g,h,r,D0100,,,
task,3,3,A,233.0,9.0,1697899420.05858,1697899420.55863,783.005133152008,1.0,114.0,114.0,1.0,h,s,783.521802902222,784.687843084335,1166.0,1697899420.57525,1697899421.75793,i,l,s,s,D0100,,,
task,3,3,A,234.0,10.0,1697899423.44193,1697899423.94197,786.388490438461,1.0,115.0,115.0,1.0,h,h,786.905163526535,788.787887096405,1883.0,1697899423.95861,1697899425.85805,c,l,h,r,D0100,,,
task,3,3,A,235.0,11.0,1697899427.54198,1697899428.04199,790.48853802681,1.0,114.0,114.0,1.0,h,s,791.005201101303,792.121541976929,1116.0,1697899428.05864,1697899429.19141,i,l,s,r,D0100,,,
task,3,3,A,236.0,12.0,1697899430.87533,1697899431.37539,793.821887969971,1.0,114.0,114.0,1.0,h,s,794.338560819626,795.337986946106,999.0,1697899431.392,1697899432.40807,i,l,s,r,D0100,,,
task,3,3,A,237.0,13.0,1697899434.09202,1697899434.59204,797.038578510284,1.0,115.0,115.0,1.0,s,h,797.555252552032,798.754671096802,1199.0,1697899434.6087,1697899435.82471,i,l,h,r,D0100,,,
task,3,3,A,238.0,14.0,1697899437.50873,1697899438.00879,800.455286502838,1.0,114.0,114.0,1.0,s,s,800.971946716309,801.904911994934,933.0,1697899438.02539,1697899438.97482,c,l,s,r,D0100,,,
task,3,3,A,239.0,15.0,1697899440.67542,1697899441.17548,803.621976852417,1.0,114.0,114.0,1.0,h,s,804.138645410538,805.071521997452,933.0,1697899441.19209,1697899442.14146,i,l,s,r,D0100,,,
task,3,3,A,240.0,16.0,1697899443.84211,1697899444.34218,806.788667917252,1.0,114.0,114.0,1.0,h,s,807.305330514908,808.338096141815,1033.0,1697899444.35877,1697899445.40811,i,l,s,r,D0100,,,
task,3,3,A,241.0,17.0,1697899447.1088,1697899447.60881,810.055354595184,1.0,115.0,115.0,1.0,h,h,810.572022914886,811.838111162186,1266.0,1697899447.62547,1697899448.90814,c,l,h,r,D0100,,,
task,3,3,A,242.0,18.0,1697899450.60883,1697899451.10889,813.555389165878,1.0,114.0,114.0,1.0,s,h,814.072051763535,815.204810142517,1133.0,1697899451.12549,1697899452.27485,i,g,s,s,D0100,,,
task,3,3,A,243.0,19.0,1697899453.97552,1697899454.47557,816.922077894211,1.0,115.0,115.0,1.0,h,s,817.438745737076,818.305096149445,866.0,1697899454.49219,1697899455.37493,i,g,h,r,D0100,,,
task,3,3,A,244.0,20.0,1697899457.07555,1697899457.57561,820.022109985352,1.0,115.0,115.0,1.0,h,s,820.538770437241,821.421795129776,883.0,1697899457.59221,1697899458.49166,i,g,h,r,D0100,,,
task,3,3,A,245.0,21.0,1697899460.19223,1697899460.69226,823.138787508011,1.0,115.0,115.0,1.0,h,h,823.655462026596,824.671579122543,1016.0,1697899460.7089,1697899461.74156,c,l,h,s,D0100,,,
task,3,3,A,246.0,22.0,1697899463.44226,1697899463.94227,826.388814687729,1.0,115.0,115.0,1.0,h,s,826.90548658371,828.321732997894,1416.0,1697899463.95893,1697899465.39162,i,g,h,s,D0100,,,
task,3,3,A,247.0,23.0,1697899467.09229,1697899467.59232,830.038843631744,1.0,114.0,114.0,1.0,s,h,830.555516719818,831.738224029541,1183.0,1697899467.60896,1697899468.80839,i,g,s,r,D0100,,,
task,3,3,A,248.0,24.0,1697899470.52565,1697899471.02569,833.472210168839,1.0,114.0,114.0,1.0,s,h,833.988880634308,834.938532114029,950.0,1697899471.04232,1697899472.00838,i,g,s,r,D0100,,,
task,3,3,A,249.0,25.0,1697899473.72568,1697899474.22569,836.672241687775,1.0,114.0,114.0,1.0,s,s,837.188910722733,838.088556051254,900.0,1697899474.24235,1697899475.15842,c,g,s,r,D0100,,,
task,3,3,A,250.0,26.0,1697899476.8757,1697899477.37575,839.822255134583,1.0,114.0,114.0,1.0,s,h,840.338927507401,841.588315963745,1249.0,1697899477.39237,1697899478.65837,i,g,s,r,D0100,,,
task,3,3,A,251.0,27.0,1697899480.37573,1697899480.87575,843.322289228439,1.0,115.0,115.0,1.0,s,h,843.838955640793,844.855620145798,1017.0,1697899480.8924,1697899481.92511,i,l,h,s,D0100,,,
task,3,3,A,252.0,28.0,1697899483.64242,1697899484.14243,846.588981866837,1.0,114.0,114.0,1.0,s,s,847.105649709702,848.055001020432,949.0,1697899484.15909,1697899485.12513,c,l,s,r,D0100,,,
task,3,3,A,253.0,29.0,1697899486.84245,1697899487.34245,849.789005756378,1.0,115.0,114.0,0.0,h,s,850.305675029755,851.321799993515,1016.0,1697899487.35912,1697899488.39183,i,l,s,r,D0100,,,
task,3,3,A,254.0,30.0,1697899490.10914,1697899490.60919,853.055692195892,0.0,,115.0,0.0,s,h,853.572365760803,856.038532972336,,1697899490.62581,1697899493.1085,i,l,h,r,D0100,,,
task,3,3,A,255.0,31.0,1697899494.82586,1697899495.3259,857.772416353226,1.0,114.0,114.0,1.0,s,s,858.289071321487,859.505454063416,1216.0,1697899495.34251,1697899496.57529,c,l,s,r,D0100,,,
task,3,3,A,256.0,32.0,1697899498.29254,1697899498.79256,861.239098310471,1.0,115.0,115.0,1.0,s,h,861.755770683289,863.221858024597,1466.0,1697899498.80921,1697899500.2919,i,l,h,r,D0100,,,
task,3,3,A,257.0,33.0,1697899502.02592,1697899502.52597,864.97247672081,1.0,114.0,114.0,1.0,s,h,865.489146232605,866.80551815033,1316.0,1697899502.54259,1697899503.87535,i,g,s,s,D0100,,,
task,3,3,A,258.0,34.0,1697899505.60928,1697899506.10929,868.555839538574,1.0,115.0,115.0,1.0,h,s,869.072502851486,870.638714075089,1566.0,1697899506.12595,1697899507.7087,i,g,h,r,D0100,,,
task,3,3,A,259.0,35.0,1697899509.44264,1697899509.94269,872.389194965363,1.0,114.0,114.0,1.0,s,h,872.905864238739,874.18861913681,1283.0,1697899509.95931,1697899511.25865,i,g,s,r,D0100,,,
task,3,3,A,260.0,36.0,1697899512.99267,1697899513.49268,875.939224481583,1.0,114.0,114.0,1.0,s,h,876.455893278122,877.755496025085,1300.0,1697899513.50934,1697899514.82544,i,g,s,r,D0100,,,
task,3,3,A,261.0,37.0,1697899516.55936,1697899517.05943,879.50591468811,1.0,114.0,114.0,1.0,s,h,880.022589445114,880.622161149979,600.0,1697899517.07603,1697899517.69213,i,g,s,r,D0100,,,
task,3,3,A,262.0,38.0,1697899519.42605,1697899519.92612,882.372603654861,1.0,115.0,115.0,1.0,h,s,882.889277935028,883.638855934143,750.0,1697899519.94272,1697899520.70874,i,g,h,r,D0100,,,
task,3,3,A,263.0,39.0,1697899522.44274,1697899522.94279,885.389298439026,1.0,115.0,115.0,1.0,h,s,885.905966758728,886.938966989517,1033.0,1697899522.95941,1697899524.00881,i,g,h,r,D0100,,,
task,3,3,A,264.0,40.0,1697899525.74277,1697899526.24279,888.689329862595,1.0,115.0,115.0,1.0,h,s,889.205991983414,890.005479097366,799.0,1697899526.25943,1697899527.07552,i,g,h,r,D0100,,,
task,3,3,A,265.0,41.0,1697899528.80945,1697899529.30945,891.756006479263,1.0,115.0,115.0,1.0,h,s,892.272684574127,893.038736104965,766.0,1697899529.32613,1697899530.10887,i,g,h,r,D0100,,,
task,3,3,A,266.0,42.0,1697899531.85947,1697899532.35954,894.80603146553,1.0,115.0,115.0,1.0,h,s,895.32270526886,896.105610132217,783.0,1697899532.37615,1697899533.17553,i,g,h,r,D0100,,,
task,3,3,A,267.0,43.0,1697899534.92617,1697899535.42623,897.872727870941,1.0,115.0,115.0,1.0,h,h,898.389394760132,899.438848018646,1049.0,1697899535.44284,1697899536.50891,c,g,h,r,D0100,,,
task,3,3,A,268.0,44.0,1697899538.25953,1697899538.75957,901.206082820892,1.0,114.0,114.0,1.0,s,h,901.72275352478,902.772267103195,1050.0,1697899538.7762,1697899539.84222,i,g,s,r,D0100,,,
task,3,3,A,269.0,45.0,1697899541.59288,1697899542.0929,904.539441823959,1.0,114.0,114.0,1.0,s,s,905.056116819382,905.905815124512,850.0,1697899542.10956,1697899542.97563,c,g,s,r,D0100,,,
task,3,3,A,270.0,46.0,1697899544.74292,1697899545.24295,907.689477920532,1.0,114.0,114.0,1.0,s,h,908.206139326096,908.888957023621,683.0,1697899545.25958,1697899545.95891,i,g,s,r,D0100,,,
task,3,3,A,271.0,47.0,1697899547.72627,1697899548.22633,910.672828674316,1.0,115.0,115.0,1.0,s,h,911.18949508667,912.055649995804,866.0,1697899548.24294,1697899549.12567,i,l,h,s,D0100,,,
task,3,3,A,272.0,48.0,1697899550.87629,1697899551.37632,913.822845935822,1.0,114.0,114.0,1.0,s,s,914.339519739151,915.789420127869,1450.0,1697899551.39296,1697899552.85893,c,g,s,s,D0100,,,
task,3,3,A,273.0,49.0,1697899554.60965,1697899555.1097,917.556211948395,1.0,115.0,115.0,1.0,h,h,918.072889328003,919.038923978806,966.0,1697899555.12633,1697899556.109,c,g,h,r,D0100,,,
task,3,3,A,274.0,50.0,1697899557.87635,1697899558.3764,920.822906970978,1.0,115.0,115.0,1.0,h,s,921.339587688446,923.022381067276,1683.0,1697899558.39303,1697899560.09247,i,g,h,r,D0100,,,
task,3,3,A,275.0,51.0,1697899561.85973,1697899562.35976,924.806282758713,1.0,114.0,114.0,1.0,s,h,925.322946310043,927.022352933884,1699.0,1697899562.37639,1697899564.09246,i,g,s,r,D0100,,,
task,3,3,A,276.0,52.0,1697899565.85975,1697899566.35981,928.806309700012,1.0,114.0,114.0,1.0,s,h,929.322978496552,929.922394990921,599.0,1697899566.37642,1697899566.99251,i,g,s,r,D0100,,,
task,3,3,A,277.0,53.0,1697899568.75977,1697899569.25983,931.706330537796,1.0,115.0,115.0,1.0,h,h,932.223000526428,933.405821084976,1183.0,1697899569.27644,1697899570.47586,c,l,h,s,D0100,,,
task,3,3,A,278.0,54.0,1697899572.24313,1697899572.74314,935.1896879673,1.0,115.0,115.0,1.0,s,h,935.706359863281,936.706305980682,1000.0,1697899572.7598,1697899573.77589,i,l,h,r,D0100,,,
task,3,3,A,279.0,55.0,1697899575.54316,1697899576.04319,938.489716053009,1.0,115.0,115.0,1.0,h,h,939.00638961792,940.07243514061,1066.0,1697899576.05983,1697899577.14252,c,l,h,r,D0100,,,
task,3,3,A,280.0,56.0,1697899578.90987,1697899579.4099,941.856422424316,1.0,115.0,115.0,1.0,h,s,942.373079776764,943.839327096939,1466.0,1697899579.42652,1697899580.90929,i,g,h,s,D0100,,,
task,3,3,A,281.0,57.0,1697899582.67655,1697899583.17657,945.623107910156,1.0,114.0,114.0,1.0,s,s,946.139788866043,947.556051015854,1416.0,1697899583.19323,1697899584.62595,c,g,s,r,D0100,,,
task,3,3,A,282.0,58.0,1697899586.39325,1697899586.8933,949.33980679512,1.0,114.0,114.0,1.0,s,h,949.856479883194,951.206097126007,1350.0,1697899586.90992,1697899588.27597,i,g,s,r,D0100,,,
task,3,3,A,283.0,59.0,1697899590.05995,1697899590.55997,953.006509542465,1.0,115.0,115.0,1.0,s,h,953.523175239563,954.506129980087,983.0,1697899590.57662,1697899591.57601,i,l,h,s,D0100,,,
task,3,3,A,284.0,60.0,1697899593.35998,1697899593.85999,956.306538581848,1.0,114.0,114.0,1.0,h,s,956.823201179504,957.956130981445,1133.0,1697899593.87664,1697899595.02605,i,l,s,r,D0100,,,
task,3,3,A,285.0,61.0,1697899596.81,1697899597.31003,959.756560564041,1.0,114.0,114.0,1.0,h,s,960.27322769165,961.572834014893,1300.0,1697899597.32667,1697899598.64276,i,l,s,r,D0100,,,
task,3,3,A,286.0,62.0,1697899600.41004,1697899600.91009,963.356598615646,1.0,115.0,115.0,1.0,s,h,963.873258113861,965.022959947586,1150.0,1697899600.9267,1697899602.09279,i,l,h,r,D0100,,,
task,3,3,A,287.0,63.0,1697899603.87672,1697899604.37673,966.823278427124,1.0,114.0,114.0,1.0,h,s,967.339954137802,968.20608496666,866.0,1697899604.3934,1697899605.27608,i,l,s,r,D0100,,,
task,3,3,A,288.0,64.0,1697899607.06008,1697899607.56012,970.006638765335,1.0,114.0,114.0,1.0,s,s,970.523310422897,972.039453029633,1516.0,1697899607.57675,1697899609.10939,c,g,s,s,D0100,,,
task,3,3,A,289.0,65.0,1697899610.89345,1697899611.39348,973.840003013611,1.0,115.0,115.0,1.0,s,h,974.356679916382,975.422732114792,1066.0,1697899611.41012,1697899612.49289,i,l,h,s,D0100,,,
task,3,3,A,290.0,66.0,1697899614.27681,1697899614.77683,977.223362922668,1.0,114.0,114.0,1.0,h,s,977.740038871765,979.206073999405,1466.0,1697899614.79348,1697899616.27625,i,l,s,r,D0100,,,
task,3,3,A,291.0,67.0,1697899618.06017,1697899618.56023,981.006730556488,1.0,115.0,115.0,1.0,s,h,981.523406028748,982.339552164078,816.0,1697899618.57685,1697899619.40957,i,l,h,r,D0100,,,
task,3,3,A,292.0,68.0,1697899621.19353,1697899621.69354,984.14008808136,1.0,115.0,115.0,1.0,s,h,984.656765937805,985.472808122635,816.0,1697899621.71021,1697899622.54289,i,l,h,r,D0100,,,
task,3,3,A,293.0,69.0,1697899624.32689,1697899624.82693,987.273443937302,1.0,114.0,114.0,1.0,h,s,987.790113449097,989.106577157974,1316.0,1697899624.84356,1697899626.17628,i,l,s,r,D0100,,,
task,3,3,A,294.0,70.0,1697899627.97692,1697899628.47694,990.923481702805,1.0,114.0,114.0,1.0,h,s,991.44015789032,992.656280040741,1216.0,1697899628.4936,1697899629.72621,i,l,s,r,D0100,,,
task,3,3,A,295.0,71.0,1697899631.52695,1697899632.02698,994.473511695862,1.0,115.0,115.0,1.0,h,h,994.990178108215,996.723169088364,1733.0,1697899632.04362,1697899633.79298,c,g,h,s,D0100,,,
task,3,3,A,296.0,72.0,1697899635.59366,1697899636.09368,998.540213346481,1.0,114.0,114.0,1.0,s,h,999.056875944138,1000.40622901917,1349.0,1697899636.11032,1697899637.47641,i,g,s,r,D0100,,,
task,3,3,A,297.0,73.0,1697899639.27702,1697899639.77706,1002.2235789299,1.0,114.0,114.0,1.0,h,s,1002.74023985863,1004.10628008842,1366.0,1697899639.79368,1697899641.17639,i,l,s,s,D0100,,,
task,3,3,A,298.0,74.0,1697899642.97705,1697899643.47708,1005.92360711098,1.0,114.0,114.0,1.0,h,s,1006.4402782917,1007.43966698647,999.0,1697899643.49372,1697899644.50971,i,l,s,r,D0100,,,
task,3,3,A,299.0,75.0,1697899646.3104,1697899646.81043,1009.25696182251,1.0,114.0,114.0,1.0,h,s,1009.77362799644,1010.67332100868,900.0,1697899646.82707,1697899647.74314,i,l,s,r,D0100,,,
task,3,3,A,300.0,76.0,1697899649.54376,1697899650.04382,1012.49031567574,1.0,115.0,115.0,1.0,h,h,1013.0069861412,1014.25640797615,1249.0,1697899650.06043,1697899651.32644,c,g,h,s,D0100,,,
task,3,3,A,301.0,77.0,1697899653.12712,1697899653.62717,1016.07367730141,1.0,115.0,115.0,1.0,s,h,1016.59034776688,1018.58988714218,2000.0,1697899653.64379,1697899655.65992,i,l,h,s,D0100,,,
task,3,3,A,302.0,78.0,1697899657.62716,1697899658.12719,1020.57372164726,1.0,115.0,115.0,1.0,h,h,1021.0904006958,1022.30675315857,1216.0,1697899658.14384,1697899659.3765,c,g,h,s,D0100,,,
task,3,3,A,303.0,79.0,1697899661.19386,1697899661.6939,1024.14042139053,1.0,114.0,114.0,1.0,s,h,1024.65708994865,1026.30666613579,1650.0,1697899661.71053,1697899663.37655,i,g,s,r,D0100,,,
task,3,3,A,304.0,80.0,1697899665.1939,1697899665.69395,1028.14045786858,1.0,115.0,115.0,1.0,s,h,1028.65711545944,1029.84004807472,1183.0,1697899665.71056,1697899666.91,i,l,h,s,D0100,,,
task,3,3,A,305.0,81.0,1697899668.72725,1697899669.22731,1031.67381167412,1.0,114.0,114.0,1.0,s,s,1032.19048285484,1033.07330393791,883.0,1697899669.24393,1697899670.14329,c,l,s,r,D0100,,,
task,3,3,A,306.0,82.0,1697899671.96062,1697899672.46063,1034.90717411041,1.0,115.0,115.0,1.0,s,h,1035.4238409996,1037.30656313896,1883.0,1697899672.47728,1697899674.37663,i,l,h,r,D0100,,,
task,3,3,A,307.0,83.0,1697899676.19399,1697899676.69401,1039.14054989815,1.0,115.0,115.0,1.0,s,h,1039.65721535683,1040.87347412109,1216.0,1697899676.71066,1697899677.94344,i,l,h,r,D0100,,,
task,3,3,A,308.0,84.0,1697899679.76068,1697899680.26071,1042.70723342896,1.0,115.0,115.0,1.0,h,s,1043.2239048481,1044.88996100426,1666.0,1697899680.27735,1697899681.96003,i,g,h,s,D0100,,,
task,3,3,A,309.0,85.0,1697899683.77738,1697899684.27741,1046.723934412,1.0,114.0,114.0,1.0,s,h,1047.24060845375,1048.19003200531,949.0,1697899684.29405,1697899685.26005,i,g,s,r,D0100,,,
task,3,3,A,310.0,86.0,1697899687.0774,1697899687.57743,1050.02396082878,1.0,114.0,114.0,1.0,s,s,1050.54063415527,1051.87349295616,1333.0,1697899687.59408,1697899688.94345,c,g,s,r,D0100,,,
task,3,3,A,311.0,87.0,1697899690.76077,1697899691.26078,1053.70732355118,1.0,114.0,114.0,1.0,s,h,1054.22400546074,1055.59022212029,1366.0,1697899691.27745,1697899692.66013,i,g,s,r,D0100,,,
task,3,3,A,312.0,88.0,1697899694.49414,1697899694.9942,1057.44069743156,1.0,115.0,115.0,1.0,h,s,1057.95736265182,1058.79019212723,833.0,1697899695.01081,1697899695.86012,i,g,h,r,D0100,,,
task,3,3,A,313.0,89.0,1697899697.69417,1697899698.1942,1060.6407225132,1.0,115.0,115.0,1.0,h,s,1061.15738654137,1062.45677995682,1299.0,1697899698.21083,1697899699.52682,i,g,h,r,D0100,,,
task,3,3,A,314.0,90.0,1697899701.36087,1697899701.86087,1064.30742478371,1.0,114.0,114.0,1.0,s,s,1064.82408285141,1065.97361302376,1150.0,1697899701.87753,1697899703.04364,c,g,s,r,D0100,,,
task,3,3,A,315.0,91.0,1697899704.87755,1697899705.37761,1067.82410764694,1.0,114.0,114.0,1.0,h,s,1068.34078764915,1070.07377314568,1733.0,1697899705.39423,1697899707.14367,i,l,s,s,D0100,,,
task,3,3,A,316.0,92.0,1697899708.97758,1697899709.4776,1071.92414069176,1.0,115.0,115.0,1.0,h,s,1072.4408094883,1074.12367606163,1683.0,1697899709.49425,1697899711.19357,i,g,h,s,D0100,,,
task,3,3,A,317.0,93.0,1697899713.02762,1697899713.52768,1075.97417783737,1.0,115.0,115.0,1.0,h,s,1076.490847826,1077.27387809753,783.0,1697899713.54429,1697899714.34372,i,g,h,r,D0100,,,
task,3,3,A,318.0,94.0,1697899716.17765,1697899716.67772,1079.12420988083,1.0,115.0,115.0,1.0,s,h,1079.64086771011,1080.77370595932,1133.0,1697899716.69431,1697899717.84376,i,l,h,s,D0100,,,
task,3,3,A,319.0,95.0,1697899719.67768,1697899720.17771,1082.62423610687,1.0,115.0,114.0,0.0,h,s,1083.14091086388,1084.60707998276,1466.0,1697899720.19435,1697899721.67698,i,l,s,r,D0100,,,
task,3,3,A,320.0,96.0,1697899723.61104,1697899724.11109,1086.55759620667,1.0,114.0,114.0,1.0,h,s,1087.07426476479,1088.35718011856,1283.0,1697899724.12771,1697899725.42709,i,l,s,r,D0100,,,
task,3,3,A,321.0,97.0,1697899727.26107,1697899727.76113,1090.20762372017,1.0,114.0,114.0,1.0,s,h,1090.72430086136,1092.10706710815,1383.0,1697899727.77774,1697899729.17714,i,g,s,s,D0100,,,
task,3,3,A,322.0,98.0,1697899731.02777,1697899731.52783,1093.97432804108,1.0,114.0,115.0,0.0,h,h,1094.49100089073,1095.99041700363,1499.0,1697899731.54444,1697899733.0604,c,g,h,r,D0100,,,
task,3,3,A,323.0,99.0,1697899734.91114,1697899735.41122,1097.85769867897,1.0,114.0,114.0,1.0,s,s,1098.37435698509,1099.89040708542,1516.0,1697899735.4278,1697899736.96057,c,g,s,r,D0100,,,
task,3,3,A,324.0,100.0,1697899738.81117,1697899739.31122,1101.7577226162,1.0,114.0,114.0,1.0,s,h,1102.27439165115,1103.6906080246,1416.0,1697899739.32783,1697899740.76051,i,g,s,r,D0100,,,
task,3,3,A,325.0,101.0,1697899742.6112,1697899743.11121,1105.55775499344,1.0,115.0,115.0,1.0,h,s,1106.07442069054,1108.07391905785,1999.0,1697899743.12786,1697899745.14388,i,g,h,r,D0100,,,
task,3,3,A,326.0,102.0,1697899746.99457,1697899747.4946,1109.94112682343,1.0,115.0,115.0,1.0,h,h,1110.45779681206,1111.55724096298,1099.0,1697899747.51124,1697899748.62735,c,l,h,s,D0100,,,
task,3,3,A,327.0,103.0,1697899750.47794,1697899750.97796,1113.42449450493,1.0,115.0,115.0,1.0,s,h,1113.94115686417,1115.50734996796,1566.0,1697899750.9946,1697899752.57725,i,l,h,r,D0100,,,
task,3,3,A,328.0,104.0,1697899754.42796,1697899754.92801,1117.37451577187,1.0,115.0,115.0,1.0,s,h,1117.89119005203,1119.05728793144,1166.0,1697899754.94463,1697899756.12741,i,l,h,r,D0100,,,
task,3,3,A,329.0,105.0,1697899757.99465,1697899758.49471,1120.94121026993,1.0,114.0,114.0,1.0,h,s,1121.45788574219,1122.35728907585,899.0,1697899758.51133,1697899759.42741,i,l,s,r,D0100,,,
task,3,3,A,330.0,106.0,1697899761.29468,1697899761.7947,1124.24123930931,1.0,114.0,114.0,1.0,h,s,1124.75790953636,1125.79082894325,1033.0,1697899761.81135,1697899762.86075,i,l,s,r,D0100,,,
task,3,3,A,331.0,107.0,1697899764.72805,1697899765.22807,1127.67460894585,1.0,115.0,115.0,1.0,h,h,1128.19127130508,1130.19125413895,2000.0,1697899765.24471,1697899767.2607,c,l,h,r,D0100,,,
task,3,3,A,332.0,108.0,1697899769.12808,1697899769.62815,1132.07463645935,1.0,114.0,114.0,1.0,h,s,1132.59130597115,1133.69099497795,1100.0,1697899769.64475,1697899770.76079,i,l,s,r,D0100,,,
task,3,3,A,333.0,109.0,1697899772.62812,1697899773.12814,1135.57467651367,1.0,115.0,115.0,1.0,h,s,1136.09133768082,1137.40732192993,1316.0,1697899773.14478,1697899774.47754,i,g,h,s,D0100,,,
task,3,3,A,334.0,110.0,1697899776.34482,1697899776.84487,1139.29137277603,1.0,115.0,115.0,1.0,h,s,1139.80803084373,1140.50748896599,699.0,1697899776.86147,1697899777.57751,i,g,h,r,D0100,,,
task,3,3,A,335.0,111.0,1697899779.4615,1697899779.96151,1142.40805411339,1.0,114.0,114.0,1.0,s,h,1142.92473220825,1144.77417016029,1849.0,1697899779.97818,1697899781.84428,i,g,s,r,D0100,,,
task,3,3,A,336.0,112.0,1697899783.71153,1697899784.21156,1146.65808820724,1.0,114.0,114.0,1.0,s,h,1147.17475962639,1147.92417502403,749.0,1697899784.2282,1697899784.9942,i,g,s,r,D0100,,,
task,4,4,D,337.0,1.0,1697899789.16157,1697899791.6616,1152.10812997818,1.0,115.0,115.0,1.0,h,h,1154.6248087883,1156.00753903389,1383.0,1697899791.67825,1697899793.07759,c,l,h,n,D0100,,,
task,4,4,D,338.0,2.0,1697899794.94495,1697899795.44499,1157.89150571823,1.0,114.0,114.0,1.0,s,s,1158.40818786621,1159.79096293449,1383.0,1697899795.46163,1697899796.86098,c,g,s,s,D0100,,,
task,4,4,D,339.0,3.0,1697899798.74499,1697899799.245,1161.69154381752,1.0,115.0,115.0,1.0,h,h,1162.20820569992,1163.87436199188,1666.0,1697899799.26165,1697899800.94432,c,l,h,s,D0100,,,
task,4,4,D,340.0,4.0,1697899802.82836,1697899803.32837,1165.77491211891,1.0,115.0,115.0,1.0,h,h,1166.29157567024,1167.65796113014,1366.0,1697899803.34502,1697899804.72778,c,l,h,r,D0100,,,
task,4,4,D,341.0,5.0,1697899806.61172,1697899807.11173,1169.55827689171,1.0,115.0,115.0,1.0,h,h,1170.07493972778,1171.25779604912,1183.0,1697899807.12838,1697899808.32773,c,g,h,s,D0100,,,
task,4,4,D,342.0,6.0,1697899810.21174,1697899810.71179,1173.15830135345,1.0,114.0,114.0,1.0,s,s,1173.6749689579,1174.74112510681,1066.0,1697899810.72841,1697899811.8111,c,l,s,s,D0100,,,
task,4,4,D,343.0,7.0,1697899813.6951,1697899814.19514,1176.64165782928,1.0,114.0,114.0,1.0,s,h,1177.15833044052,1178.55771899223,1399.0,1697899814.21177,1697899815.62788,i,g,s,s,D0100,,,
task,4,4,D,344.0,8.0,1697899817.51181,1697899818.01182,1180.45836377144,1.0,115.0,115.0,1.0,s,h,1180.97502589226,1182.15789103508,1183.0,1697899818.02847,1697899819.22791,i,l,h,s,D0100,,,
task,4,4,D,345.0,9.0,1697899821.11183,1697899821.61183,1184.05838441849,1.0,115.0,115.0,1.0,s,h,1184.57505893707,1185.69135713577,1116.0,1697899821.6285,1697899822.76121,i,l,h,r,D0100,,,
task,4,4,D,346.0,10.0,1697899824.64519,1697899825.14526,1187.59174776077,1.0,115.0,115.0,1.0,h,h,1188.10842323303,1189.0079741478,900.0,1697899825.16187,1697899826.07793,c,g,h,s,D0100,,,
task,4,4,D,347.0,11.0,1697899827.96188,1697899828.46189,1190.90843892097,1.0,114.0,114.0,1.0,h,s,1191.42511701584,1192.67492604256,1250.0,1697899828.47856,1697899829.74457,i,l,s,s,D0100,,,
task,4,4,D,348.0,12.0,1697899831.64525,1697899832.14526,1194.59180569649,1.0,114.0,114.0,1.0,s,s,1195.10848593712,1196.74142313004,1633.0,1697899832.16193,1697899833.81126,c,g,s,s,D0100,,,
task,4,4,D,349.0,13.0,1697899835.71195,1697899836.21201,1198.6585059166,1.0,115.0,115.0,1.0,h,h,1199.17517733574,1200.47457313538,1299.0,1697899836.22862,1697899837.54464,c,l,h,s,D0100,,,
task,4,4,D,350.0,14.0,1697899839.44531,1697899839.94534,1202.39186692238,1.0,114.0,114.0,1.0,s,h,1202.90853667259,1204.10845708847,1200.0,1697899839.96198,1697899841.17805,i,g,s,s,D0100,,,
task,4,4,D,351.0,15.0,1697899843.07867,1697899843.57869,1206.02522921562,1.0,114.0,114.0,1.0,s,s,1206.5419049263,1207.90805006027,1366.0,1697899843.59535,1697899844.97805,c,l,s,s,D0100,,,
task,4,4,D,352.0,16.0,1697899846.8787,1697899847.37873,1209.82526159286,1.0,114.0,114.0,1.0,s,s,1210.34193468094,1211.32474207878,983.0,1697899847.39538,1697899848.3947,c,l,s,r,D0100,,,
task,4,4,D,353.0,17.0,1697899850.2954,1697899850.79542,1213.24195504189,1.0,114.0,114.0,1.0,s,h,1213.75862789154,1214.99138307571,1233.0,1697899850.81207,1697899852.06141,i,g,s,s,D0100,,,
task,4,4,D,354.0,18.0,1697899853.9621,1697899854.46212,1216.90865683556,1.0,115.0,115.0,1.0,h,h,1217.42532467842,1218.62482309341,1199.0,1697899854.47877,1697899855.69477,c,g,h,r,D0100,,,
task,4,4,D,355.0,19.0,1697899857.59546,1697899858.09546,1220.54201245308,1.0,115.0,115.0,1.0,h,h,1221.05868601799,1222.25809907913,1199.0,1697899858.11213,1697899859.32815,c,l,h,s,D0100,,,
task,4,4,D,356.0,20.0,1697899861.22882,1697899861.72882,1224.17537307739,1.0,114.0,114.0,1.0,s,s,1224.69205284119,1225.49159812927,800.0,1697899861.7455,1697899862.56153,c,g,s,s,D0100,,,
task,4,4,D,357.0,21.0,1697899864.46219,1697899864.96223,1227.40874481201,1.0,115.0,115.0,1.0,h,s,1227.92540764809,1228.84177112579,916.0,1697899864.97885,1697899865.91163,i,g,h,r,D0100,,,
task,4,4,D,358.0,22.0,1697899867.82887,1697899868.32888,1230.77542853355,1.0,115.0,115.0,1.0,h,h,1231.2921037674,1232.30837607384,1016.0,1697899868.34555,1697899869.37832,c,l,h,s,D0100,,,
task,4,4,D,359.0,23.0,1697899871.29556,1697899871.7956,1234.24211716652,1.0,114.0,114.0,1.0,s,s,1234.75879263878,1235.82498598099,1066.0,1697899871.81224,1697899872.895,c,l,s,r,D0100,,,
task,4,4,D,360.0,24.0,1697899874.81226,1697899875.31231,1237.75882196426,1.0,114.0,114.0,1.0,s,s,1238.27548599243,1239.30876111984,1033.0,1697899875.32893,1697899876.37837,c,g,s,s,D0100,,,
task,4,4,D,361.0,25.0,1697899878.29562,1697899878.79564,1241.24217486382,1.0,115.0,115.0,1.0,h,h,1241.75884699821,1242.9252269268,1166.0,1697899878.81229,1697899879.99505,c,l,h,s,D0100,,,
task,4,4,D,362.0,26.0,1697899881.91232,1697899882.41235,1244.85887956619,1.0,115.0,115.0,1.0,h,h,1245.37554073334,1246.65838193893,1283.0,1697899882.42898,1697899883.7284,c,g,h,s,D0100,,,
task,4,4,D,363.0,27.0,1697899885.64569,1697899886.14575,1248.59224414825,1.0,115.0,115.0,1.0,h,h,1249.10889983177,1249.90840411186,800.0,1697899886.16234,1697899886.97834,c,g,h,r,D0100,,,
task,4,4,D,364.0,28.0,1697899888.8957,1697899889.39575,1251.84225702286,1.0,114.0,114.0,1.0,s,s,1252.35893082619,1253.44174599648,1083.0,1697899889.41237,1697899890.51172,c,l,s,s,D0100,,,
task,4,4,D,365.0,29.0,1697899892.44574,1697899892.94581,1255.39229989052,1.0,114.0,114.0,1.0,s,s,1255.90896868706,1257.27523994446,1366.0,1697899892.96241,1697899894.34509,c,g,s,s,D0100,,,
task,4,4,D,366.0,30.0,1697899896.2791,1697899896.77911,1259.22565221786,0.0,,115.0,0.0,s,h,1259.74232077599,1262.20847296715,,1697899896.79576,1697899899.27845,i,l,h,s,D0100,,,
task,4,4,D,367.0,31.0,1697899901.21247,1697899901.71254,1264.15903043747,1.0,114.0,114.0,1.0,s,s,1264.6757068634,1266.00842094421,1333.0,1697899901.72915,1697899903.07848,c,g,s,s,D0100,,,
task,4,4,D,368.0,32.0,1697899905.01251,1697899905.51255,1267.95906257629,1.0,114.0,114.0,1.0,h,s,1268.47573399544,1269.74235510826,1267.0,1697899905.52918,1697899906.81196,i,l,s,s,D0100,,,
task,4,4,D,369.0,33.0,1697899908.74587,1697899909.24589,1271.69242763519,1.0,115.0,115.0,1.0,h,h,1272.20909309387,1273.17515301704,966.0,1697899909.26254,1697899910.24527,c,g,h,s,D0100,,,
task,4,4,D,370.0,34.0,1697899912.17923,1697899912.67925,1275.12578606606,1.0,114.0,114.0,1.0,s,s,1275.6424536705,1277.07521700859,1433.0,1697899912.6959,1697899914.14525,c,l,s,s,D0100,,,
task,4,4,D,371.0,35.0,1697899916.07926,1697899916.57931,1279.025816679,1.0,115.0,115.0,1.0,h,h,1279.54248929024,1281.32531714439,1783.0,1697899916.59593,1697899918.39537,c,l,h,r,D0100,,,
task,4,4,D,372.0,36.0,1697899920.49596,1697899920.99601,1283.44252109528,1.0,114.0,114.0,1.0,s,s,1283.95918941498,1285.64250302315,1683.0,1697899921.01263,1697899922.71205,c,l,s,r,D0100,,,
task,4,4,D,373.0,37.0,1697899924.66268,1697899925.16274,1287.60923266411,1.0,114.0,114.0,1.0,s,s,1288.12589144707,1289.12582612038,1000.0,1697899925.17933,1697899926.19534,c,g,s,s,D0100,,,
task,4,4,D,374.0,38.0,1697899928.14604,1697899928.64608,1291.09259438515,1.0,114.0,114.0,1.0,s,s,1291.60925579071,1293.04199910164,1433.0,1697899928.6627,1697899930.11205,c,l,s,s,D0100,,,
task,4,4,D,375.0,39.0,1697899932.06273,1697899932.56278,1295.00928401947,1.0,114.0,114.0,1.0,s,s,1295.52595472336,1296.69219398499,1166.0,1697899932.5794,1697899933.76206,c,g,s,s,D0100,,,
task,4,4,D,376.0,40.0,1697899935.71275,1697899936.21279,1298.65930843353,1.0,115.0,115.0,1.0,h,h,1299.17598342896,1300.14214515686,966.0,1697899936.22943,1697899937.2121,c,g,h,r,D0100,,,
task,4,4,D,377.0,41.0,1697899939.16279,1697899939.66282,1302.10934948921,1.0,114.0,114.0,1.0,s,s,1302.62600803375,1303.89207911491,1266.0,1697899939.67945,1697899940.96221,c,g,s,r,D0100,,,
task,4,4,D,378.0,42.0,1697899942.91281,1697899943.41282,1305.85937094688,1.0,115.0,115.0,1.0,h,h,1306.37603664398,1307.57545399666,1199.0,1697899943.42948,1697899944.64551,c,l,h,s,D0100,,,
task,4,4,D,379.0,43.0,1697899946.59618,1697899947.09624,1309.54273366928,1.0,115.0,115.0,1.0,h,h,1310.0594022274,1311.4754281044,1416.0,1697899947.11285,1697899948.54556,c,g,h,s,D0100,,,
task,4,4,D,380.0,44.0,1697899950.49621,1697899950.99624,1313.44276213646,1.0,115.0,115.0,1.0,s,h,1313.95943593979,1315.94244194031,1983.0,1697899951.01288,1697899953.01232,i,l,h,s,D0100,,,
task,4,4,D,381.0,45.0,1697899954.96291,1697899955.46295,1317.90946578979,1.0,115.0,115.0,1.0,h,h,1318.42614102364,1319.25894904137,833.0,1697899955.47958,1697899956.3289,c,g,h,s,D0100,,,
task,4,4,D,382.0,46.0,1697899958.2796,1697899958.77961,1321.22615742683,1.0,115.0,115.0,1.0,h,h,1321.74283313751,1322.92557907104,1183.0,1697899958.79628,1697899959.99561,c,l,h,s,D0100,,,
task,4,4,D,383.0,47.0,1697899961.9463,1697899962.44631,1324.8928565979,1.0,114.0,114.0,1.0,s,s,1325.40952301025,1326.17558193207,766.0,1697899962.46297,1697899963.24563,c,g,s,s,D0100,,,
task,4,4,D,384.0,48.0,1697899965.19632,1697899965.69633,1328.14287805557,1.0,114.0,114.0,1.0,s,s,1328.6595594883,1329.82570505142,1166.0,1697899965.713,1697899966.89566,c,l,s,s,D0100,,,
task,4,4,D,385.0,49.0,1697899968.86303,1697899969.36307,1331.80958724022,1.0,115.0,115.0,1.0,h,s,1332.32624745369,1333.42573213577,1099.0,1697899969.37969,1697899970.4957,i,g,h,s,D0100,,,
task,4,4,D,386.0,50.0,1697899972.46305,1697899972.96309,1335.40960693359,1.0,115.0,115.0,1.0,h,h,1335.92627501488,1337.27587604523,1350.0,1697899972.97972,1697899974.34572,c,g,h,r,D0100,,,
task,4,4,D,387.0,51.0,1697899976.31308,1697899976.81314,1339.2596347332,1.0,115.0,115.0,1.0,h,h,1339.77631855011,1340.47597193718,700.0,1697899976.82976,1697899977.54571,c,g,h,r,D0100,,,
task,4,4,D,388.0,52.0,1697899979.51311,1697899980.01312,1342.45966863632,1.0,115.0,115.0,1.0,h,h,1342.97633171082,1344.27580308914,1299.0,1697899980.02977,1697899981.34578,c,l,h,s,D0100,,,
task,4,4,D,389.0,53.0,1697899983.31314,1697899983.81321,1346.25970172882,1.0,114.0,114.0,1.0,s,s,1346.77636003494,1348.04272007942,1266.0,1697899983.8298,1697899985.11247,c,l,s,r,D0100,,,
task,4,4,D,390.0,54.0,1697899987.07983,1697899987.57986,1350.02638673782,1.0,115.0,115.0,1.0,h,h,1350.5430624485,1351.60942602158,1066.0,1697899987.59651,1697899988.67926,c,l,h,r,D0100,,,
task,4,4,D,391.0,55.0,1697899990.64652,1697899991.14656,1353.59308075905,1.0,114.0,114.0,1.0,s,s,1354.10975694656,1354.94243812561,833.0,1697899991.1632,1697899992.01253,c,l,s,r,D0100,,,
task,4,4,D,392.0,56.0,1697899993.99656,1697899994.49658,1356.94311571121,1.0,114.0,114.0,1.0,s,h,1357.45978093147,1358.44248604774,983.0,1697899994.51322,1697899995.51258,i,g,s,s,D0100,,,
task,4,4,D,393.0,57.0,1697899997.47991,1697899997.97999,1360.42646956444,1.0,115.0,115.0,1.0,h,h,1360.94314241409,1362.25927495956,1316.0,1697899997.99659,1697899999.32927,c,l,h,s,D0100,,,
task,4,4,D,394.0,58.0,1697900001.31329,1697900001.81336,1364.25984382629,1.0,114.0,114.0,1.0,s,h,1364.77650284767,1365.65935111046,883.0,1697900001.82995,1697900002.72935,i,g,s,s,D0100,,,
task,4,4,D,395.0,59.0,1697900004.7133,1697900005.21331,1367.65985989571,1.0,114.0,114.0,1.0,s,s,1368.17653226852,1369.20954394341,1033.0,1697900005.22998,1697900006.27942,c,l,s,s,D0100,,,
task,4,4,D,396.0,60.0,1697900008.26334,1697900008.76336,1371.20989704132,1.0,115.0,115.0,1.0,h,h,1371.7265598774,1373.07623696327,1350.0,1697900008.78,1697900010.146,c,g,h,s,D0100,,,
task,4,4,D,397.0,61.0,1697900012.1467,1697900012.64673,1375.09326076508,1.0,115.0,115.0,1.0,s,h,1375.60992503166,1376.94274306297,1333.0,1697900012.66337,1697900014.01272,i,l,h,s,D0100,,,
task,4,4,D,398.0,62.0,1697900015.99674,1697900016.49675,1378.94329690933,1.0,114.0,114.0,1.0,s,h,1379.45995640755,1380.90944504738,1449.0,1697900016.5134,1697900017.9794,i,g,s,s,D0100,,,
task,4,4,D,399.0,63.0,1697900019.96343,1697900020.46349,1382.90998220444,1.0,114.0,114.0,1.0,s,s,1383.42665576935,1384.30951905251,883.0,1697900020.4801,1697900021.3795,c,l,s,s,D0100,,,
task,4,4,D,400.0,64.0,1697900023.36346,1697900023.86349,1386.31001710892,1.0,114.0,114.0,1.0,s,h,1386.82669329643,1387.90972495079,1083.0,1697900023.88014,1697900024.97956,i,g,s,s,D0100,,,
task,4,4,D,401.0,65.0,1697900026.96348,1697900027.46349,1389.9100356102,1.0,114.0,114.0,1.0,s,s,1390.42670822144,1391.77636003494,1350.0,1697900027.48015,1697900028.84626,c,l,s,s,D0100,,,
task,4,4,D,402.0,66.0,1697900030.84685,1697900031.34686,1393.79340291023,1.0,114.0,114.0,1.0,s,h,1394.31007575989,1395.64288401604,1333.0,1697900031.36352,1697900032.71287,i,g,s,s,D0100,,,
task,4,4,D,403.0,67.0,1697900034.71355,1697900035.21362,1397.66011095047,1.0,114.0,114.0,1.0,h,s,1398.17677569389,1399.57621693611,1399.0,1697900035.23022,1697900036.6462,i,l,s,s,D0100,,,
task,4,4,D,404.0,68.0,1697900038.63024,1697900039.13028,1401.57679963112,1.0,115.0,115.0,1.0,h,s,1402.09346914291,1403.20965909958,1116.0,1697900039.14691,1697900040.27959,i,g,h,s,D0100,,,
task,4,4,D,405.0,69.0,1697900042.28027,1697900042.78031,1405.22682476044,1.0,114.0,114.0,1.0,s,s,1405.74350166321,1406.82621407509,1083.0,1697900042.79694,1697900043.89629,c,l,s,s,D0100,,,
task,4,4,D,406.0,70.0,1697900045.89698,1697900046.39704,1408.84353590012,1.0,115.0,115.0,1.0,h,h,1409.36019635201,1410.30966496468,949.0,1697900046.41364,1697900047.37967,c,g,h,s,D0100,,,
task,4,4,D,407.0,71.0,1697900049.38034,1697900049.88037,1412.32689332962,1.0,114.0,114.0,1.0,s,h,1412.84355592728,1413.70972895622,866.0,1697900049.897,1697900050.77977,i,g,s,r,D0100,,,
task,4,4,D,408.0,72.0,1697900052.78036,1697900053.28041,1415.72691941261,1.0,115.0,115.0,1.0,h,h,1416.24357700348,1417.32642507553,1083.0,1697900053.29702,1697900054.39636,c,l,h,s,D0100,,,
task,4,4,D,409.0,73.0,1697900056.39706,1697900056.89711,1419.34361577034,1.0,115.0,115.0,1.0,s,h,1419.86027693748,1421.14309000969,1283.0,1697900056.91372,1697900058.21308,i,l,h,r,D0100,,,
task,4,4,D,410.0,74.0,1697900060.21376,1697900060.71382,1423.16031599045,1.0,115.0,115.0,1.0,h,h,1423.67698049545,1424.9599840641,1283.0,1697900060.73042,1697900062.02987,c,g,h,s,D0100,,,
task,4,4,D,411.0,75.0,1697900064.03045,1697900064.53051,1426.97701072693,1.0,115.0,115.0,1.0,h,h,1427.49367117882,1428.876486063,1383.0,1697900064.54711,1697900065.94654,c,l,h,s,D0100,,,
task,4,4,D,412.0,76.0,1697900067.94715,1697900068.4472,1430.89370965958,1.0,114.0,114.0,1.0,s,s,1431.41037106514,1432.75990605354,1350.0,1697900068.46381,1697900069.82982,c,l,s,r,D0100,,,
task,4,4,D,413.0,77.0,1697900071.84717,1697900072.34722,1434.7937297821,1.0,114.0,114.0,1.0,s,s,1435.31040358543,1436.14327907562,833.0,1697900072.36385,1697900073.21318,c,g,s,s,D0100,,,
task,4,4,D,414.0,78.0,1697900075.23053,1697900075.73058,1438.17708992958,1.0,114.0,114.0,1.0,s,h,1438.6937623024,1439.94330406189,1250.0,1697900075.74721,1697900077.01322,i,g,s,r,D0100,,,
task,4,4,D,415.0,79.0,1697900079.03057,1697900079.53059,1441.97712445259,1.0,115.0,115.0,1.0,h,h,1442.49379277229,1443.54334306717,1050.0,1697900079.54724,1697900080.61333,c,l,h,s,D0100,,,
task,4,4,D,416.0,80.0,1697900082.6306,1697900083.13066,1445.5771613121,1.0,115.0,115.0,1.0,h,h,1446.0938205719,1447.20998716354,1116.0,1697900083.14726,1697900084.27995,c,g,h,s,D0100,,,
task,4,4,D,417.0,81.0,1697900086.29729,1697900086.79731,1449.24384403229,1.0,115.0,115.0,1.0,h,s,1449.7605137825,1450.91001915932,1150.0,1697900086.81396,1697900087.97996,i,g,h,r,D0100,,,
task,4,4,D,418.0,82.0,1697900089.99733,1697900090.49738,1452.94388318062,1.0,115.0,115.0,1.0,h,h,1453.46055245399,1454.69346404076,1233.0,1697900090.514,1697900091.76344,c,l,h,s,D0100,,,
task,4,4,D,419.0,83.0,1697900093.78069,1697900094.28071,1456.72724843025,1.0,114.0,114.0,1.0,s,s,1457.24390554428,1458.71011304855,1466.0,1697900094.29735,1697900095.78006,c,g,s,s,D0100,,,
task,4,4,D,420.0,84.0,1697900097.79738,1697900098.29744,1460.74393606186,1.0,114.0,114.0,1.0,s,s,1461.26061010361,1462.45999312401,1199.0,1697900098.31405,1697900099.53005,c,l,s,s,D0100,,,
task,4,4,D,421.0,85.0,1697900101.54742,1697900102.04744,1464.49397993088,1.0,114.0,114.0,1.0,s,s,1465.01063895226,1465.89363503456,883.0,1697900102.06408,1697900102.9635,c,g,s,s,D0100,,,
task,4,4,D,422.0,86.0,1697900104.99745,1697900105.4975,1467.94400668144,1.0,115.0,115.0,1.0,h,h,1468.46067357063,1469.54367303848,1083.0,1697900105.51412,1697900106.61346,c,l,h,s,D0100,,,
task,4,4,D,423.0,87.0,1697900108.64747,1697900109.14753,1471.59402608871,1.0,114.0,114.0,1.0,s,s,1472.11069369316,1473.26079797745,1150.0,1697900109.16414,1697900110.33016,c,l,s,r,D0100,,,
task,4,4,D,424.0,88.0,1697900112.36416,1697900112.86419,1475.31071686745,1.0,114.0,114.0,1.0,s,h,1475.82739043236,1477.21019506454,1383.0,1697900112.88083,1697900114.28017,i,g,s,s,D0100,,,
task,4,4,D,425.0,89.0,1697900116.31419,1697900116.81424,1479.2607486248,1.0,115.0,115.0,1.0,h,h,1479.7774207592,1480.97718310356,1200.0,1697900116.83086,1697900118.04691,c,g,h,r,D0100,,,
task,4,4,D,426.0,90.0,1697900120.0809,1697900120.5809,1483.02745485306,1.0,114.0,114.0,1.0,s,s,1483.54412269592,1484.72691392899,1183.0,1697900120.59757,1697900121.79696,c,l,s,s,D0100,,,
task,4,4,D,427.0,91.0,1697900123.83092,1697900124.33097,1486.77747416496,1.0,114.0,114.0,1.0,s,s,1487.29414725304,1488.09352612495,799.0,1697900124.34759,1697900125.16359,c,l,s,r,D0100,,,
task,4,4,D,428.0,92.0,1697900127.21429,1697900127.71431,1490.16084718704,1.0,115.0,115.0,1.0,h,h,1490.67750549316,1491.67687106133,999.0,1697900127.73095,1697900128.74696,c,g,h,s,D0100,,,
task,4,4,D,429.0,93.0,1697900130.78097,1697900131.281,1493.72752690315,1.0,115.0,115.0,1.0,h,h,1494.2442009449,1495.37703800201,1133.0,1697900131.29764,1697900132.44698,c,l,h,s,D0100,,,
task,4,4,D,430.0,94.0,1697900134.49768,1697900134.99769,1497.44423699379,1.0,115.0,115.0,1.0,h,s,1497.96090245247,1499.34366297722,1383.0,1697900135.01435,1697900136.41376,i,g,h,s,D0100,,,
task,4,4,D,431.0,95.0,1697900138.46436,1697900138.9644,1501.41092085838,1.0,114.0,114.0,1.0,s,s,1501.92759609222,1502.91109609604,984.0,1697900138.98104,1697900139.98043,c,g,s,r,D0100,,,
task,4,4,D,432.0,96.0,1697900142.0644,1697900142.56441,1505.01095247269,1.0,115.0,115.0,1.0,h,h,1505.52762317657,1506.54385614395,1016.0,1697900142.58107,1697900143.61383,c,l,h,s,D0100,,,
task,4,4,D,433.0,97.0,1697900145.66444,1697900146.16449,1508.61099219322,1.0,114.0,114.0,1.0,s,s,1509.12765073776,1510.0771291256,949.0,1697900146.18109,1697900147.14713,c,g,s,s,D0100,,,
task,4,4,D,434.0,98.0,1697900149.19778,1697900149.69785,1512.14433884621,1.0,115.0,115.0,1.0,h,h,1512.66101002693,1513.87725901604,1216.0,1697900149.71445,1697900150.94717,c,l,h,s,D0100,,,
task,4,4,D,435.0,99.0,1697900152.99782,1697900153.49784,1515.94438076019,1.0,114.0,114.0,1.0,s,s,1516.46103668213,1517.54379105568,1083.0,1697900153.51448,1697900154.61392,c,g,s,s,D0100,,,
task,4,4,D,436.0,100.0,1697900156.74784,1697900157.24791,1519.6944000721,1.0,115.0,115.0,1.0,s,h,1520.21107149124,1521.49383211136,1283.0,1697900157.26451,1697900158.56385,i,l,h,s,D0100,,,
task,4,4,D,437.0,101.0,1697900160.64788,1697900161.14793,1523.59443283081,1.0,115.0,115.0,1.0,h,h,1524.11110329628,1526.060806036,1950.0,1697900161.16455,1697900163.13065,c,l,h,r,D0100,,,
task,4,4,D,438.0,102.0,1697900165.38125,1697900165.88126,1528.32780480385,1.0,115.0,115.0,1.0,h,h,1528.84447312355,1529.87749099731,1033.0,1697900165.89792,1697900166.94734,c,g,h,s,D0100,,,
task,4,4,D,439.0,103.0,1697900169.01461,1697900169.51467,1531.96116566658,1.0,114.0,114.0,1.0,s,s,1532.47784018517,1533.41055202484,933.0,1697900169.53128,1697900170.48069,c,g,s,r,D0100,,,
task,4,4,D,440.0,104.0,1697900172.54798,1697900173.04801,1535.49453282356,1.0,114.0,114.0,1.0,s,s,1536.01120018959,1537.24413108826,1233.0,1697900173.06464,1697900174.31405,c,l,s,s,D0100,,,
task,4,4,D,441.0,105.0,1697900176.39801,1697900176.89807,1539.3445687294,1.0,115.0,115.0,1.0,h,h,1539.86122965813,1541.29401302338,1433.0,1697900176.91467,1697900178.36401,c,g,h,s,D0100,,,
task,4,4,D,442.0,106.0,1697900180.4647,1697900180.96473,1543.41125559807,1.0,115.0,115.0,1.0,h,h,1543.92793011665,1545.12725806236,1199.0,1697900180.98137,1697900182.19741,c,l,h,s,D0100,,,
task,4,4,D,443.0,107.0,1697900184.26473,1697900184.76476,1547.21128749847,1.0,115.0,115.0,1.0,h,h,1547.72796750069,1548.6941010952,966.0,1697900184.78141,1697900185.76408,c,g,h,s,D0100,,,
task,4,4,D,444.0,108.0,1697900187.83143,1697900188.3315,1550.77798390388,1.0,114.0,114.0,1.0,h,s,1551.29465389252,1552.57747507095,1283.0,1697900188.3481,1697900189.64743,i,l,s,s,D0100,,,
task,4,4,D,445.0,109.0,1697900191.71479,1697900192.2148,1554.66134548187,1.0,114.0,114.0,1.0,s,h,1555.17801427841,1556.4777109623,1300.0,1697900192.23146,1697900193.54757,i,g,s,s,D0100,,,
task,4,4,D,446.0,110.0,1697900195.61482,1697900196.11483,1558.56137704849,1.0,115.0,115.0,1.0,h,h,1559.07804679871,1559.94433498383,866.0,1697900196.13149,1697900197.01422,c,g,h,r,D0100,,,
task,4,4,D,447.0,111.0,1697900199.08151,1697900199.58156,1562.02806687355,1.0,114.0,114.0,1.0,s,s,1562.54474163055,1563.72756099701,1183.0,1697900199.59818,1697900200.79757,c,l,s,s,D0100,,,
task,4,4,D,448.0,112.0,1697900202.86487,1697900203.36489,1565.81143093109,1.0,114.0,114.0,1.0,s,s,1566.32810974121,1567.11091804504,783.0,1697900203.38155,1697900204.18088,c,g,s,s,D0100,,,
task,1,1,C,1.0,1.0,1704816734.76034,1704816737.26047,0.0174019336700439,0.0,,114.0,0.0,s,s,2.53408408164978,5.00021314620972,,1704816737.27702,1704816739.75987,c,g,s,n,D0102,,,
task,1,1,C,2.0,2.0,1704816741.01041,1704816741.51045,6.26746439933777,1.0,,114.0,1.0,s,s,6.78414177894592,8.51706600189209,1733.0,1704816741.52708,1704816743.27671,c,l,s,s,D0102,,114.0,
task,1,1,C,3.0,3.0,1704816744.54377,1704816745.04382,9.80083346366882,1.0,,115.0,1.0,h,h,10.3175013065338,11.7668781280518,1449.0,1704816745.06044,1704816746.52657,c,l,h,r,D0102,,115.0,
task,1,1,C,4.0,4.0,1704816747.7938,1704816748.29387,13.0508613586426,1.0,,115.0,1.0,h,h,13.5675265789032,15.5170121192932,1949.0,1704816748.31047,1704816750.27661,c,g,h,s,D0102,,115.0,
task,1,1,C,5.0,5.0,1704816751.54384,1704816752.04402,16.8008992671967,1.0,,115.0,1.0,h,h,17.3175709247589,19.2003660202026,1883.0,1704816752.06051,1704816753.96028,c,g,h,r,D0102,,115.0,
task,1,1,C,6.0,6.0,1704816755.24388,1704816755.74422,20.500937461853,1.0,,115.0,0.0,s,h,21.0176076889038,22.9838311672211,1966.0,1704816755.76055,1704816757.74326,i,l,h,s,D0102,,114.0,
task,1,1,C,7.0,7.0,1704816759.01059,1704816759.51063,24.267644405365,1.0,,114.0,1.0,s,s,24.7843089103699,26.9172501564026,2133.0,1704816759.52725,1704816761.67668,c,l,s,r,D0102,,114.0,
task,1,1,C,8.0,8.0,1704816762.94395,1704816763.44402,28.2010092735291,1.0,,115.0,1.0,h,h,28.7176842689514,30.484375,1767.0,1704816763.46063,1704816765.24328,c,l,h,r,D0102,,115.0,
task,1,1,C,9.0,9.0,1704816766.51066,1704816767.01069,31.7677218914032,1.0,,114.0,1.0,s,s,32.2843852043152,34.1338701248169,1849.0,1704816767.02733,1704816768.89345,c,l,s,r,D0102,,114.0,
task,1,1,C,10.0,10.0,1704816770.16069,1704816770.66072,35.417750120163,1.0,,114.0,0.0,s,s,35.9344213008881,37.9505760669708,2016.0,1704816770.67736,1704816772.71013,c,l,s,r,D0102,,115.0,
task,1,1,C,11.0,11.0,1704816773.97741,1704816774.47745,39.2344672679901,1.0,,115.0,1.0,h,h,39.7511250972748,40.783910036087,1033.0,1704816774.49407,1704816775.54339,c,l,h,r,D0102,,115.0,
task,1,1,C,12.0,12.0,1704816776.82742,1704816777.32746,42.0844812393188,1.0,,115.0,1.0,h,h,42.6011528968811,43.7341361045837,1133.0,1704816777.34409,1704816778.49348,c,l,h,r,D0102,,115.0,
task,1,1,C,13.0,13.0,1704816779.76079,1704816780.26082,45.017852306366,1.0,,114.0,1.0,s,s,45.5345144271851,46.8672461509705,1333.0,1704816780.27746,1704816781.62682,c,l,s,r,D0102,,114.0,
task,1,1,C,14.0,14.0,1704816782.91082,1704816783.41085,48.1678814888,1.0,,114.0,1.0,s,s,48.6845450401306,50.084144115448,1400.0,1704816783.42749,1704816784.84355,c,l,s,r,D0102,,114.0,
task,1,1,C,15.0,15.0,1704816786.12752,1704816786.6276,51.3845772743225,1.0,,115.0,1.0,h,h,51.9012503623962,53.2340440750122,1333.0,1704816786.64419,1704816787.99358,c,l,h,r,D0102,,115.0,
task,1,1,C,16.0,16.0,1704816789.27755,1704816789.77756,54.5346117019653,1.0,,114.0,0.0,h,s,55.0512723922729,56.1011621952057,1050.0,1704816789.79421,1704816790.86026,i,l,s,r,D0102,,115.0,
task,1,1,C,17.0,17.0,1704816792.14424,1704816792.64429,57.401296377182,0.0,,115.0,0.0,h,h,57.9179680347443,60.3841199874878,,1704816792.66091,1704816795.14362,c,g,h,s,D0102,,,
task,1,1,C,18.0,18.0,1704816796.42761,1704816796.92782,61.6846697330475,1.0,,114.0,1.0,s,h,62.2013454437256,63.2008471488953,1000.0,1704816796.94429,1704816797.96033,i,g,s,r,D0102,,114.0,
task,1,1,C,19.0,19.0,1704816799.2443,1704816799.74432,64.501363992691,0.0,,114.0,0.0,s,s,65.0180382728577,67.484176158905,,1704816799.76098,1704816802.24367,c,g,s,r,D0102,,,
task,1,1,C,20.0,20.0,1704816803.52768,1704816804.02772,68.7847414016724,1.0,,115.0,1.0,h,h,69.3014140129089,70.6175391674042,1316.0,1704816804.04435,1704816805.3771,c,g,h,r,D0102,,115.0,
task,1,1,C,21.0,21.0,1704816806.66105,1704816807.1611,71.9181115627289,1.0,,115.0,1.0,h,h,72.434778213501,74.0676829814911,1633.0,1704816807.17772,1704816808.8271,c,g,h,r,D0102,,115.0,
task,1,1,C,22.0,22.0,1704816810.12775,1704816810.62779,75.3848083019257,1.0,,115.0,1.0,h,h,75.901478767395,77.1008989810944,1199.0,1704816810.64442,1704816811.86049,c,g,h,r,D0102,,115.0,
task,1,1,C,23.0,23.0,1704816813.16111,1704816813.66117,78.4181699752808,1.0,,114.0,1.0,s,s,78.9348423480988,80.217668056488,1283.0,1704816813.67778,1704816814.97712,c,g,s,r,D0102,,114.0,
task,1,1,C,24.0,24.0,1704816816.2778,1704816816.77781,81.5348613262177,1.0,,114.0,1.0,s,h,82.0515344142914,83.7010631561279,1650.0,1704816816.79448,1704816818.46052,i,g,s,r,D0102,,114.0,
task,1,1,C,25.0,25.0,1704816819.76118,1704816820.26121,85.0182356834412,1.0,,114.0,1.0,s,s,85.5349073410034,86.5675752162933,1033.0,1704816820.27785,1704816821.32717,c,g,s,r,D0102,,114.0,
task,1,1,C,26.0,26.0,1704816822.62787,1704816823.12789,87.8849303722382,1.0,,115.0,1.0,h,h,88.4016013145447,89.4177210330963,1016.0,1704816823.14454,1704816824.1772,c,g,h,r,D0102,,115.0,
task,1,1,C,27.0,27.0,1704816825.4779,1704816825.97792,90.7349574565887,1.0,,115.0,1.0,h,h,91.2516281604767,92.4009912014008,1149.0,1704816825.99457,1704816827.16062,c,g,h,r,D0102,,115.0,
task,1,1,C,28.0,28.0,1704816828.47792,1704816828.97796,93.7349834442139,1.0,,114.0,1.0,s,s,94.2516555786133,95.3512780666351,1100.0,1704816828.9946,1704816830.11062,c,g,s,r,D0102,,114.0,
task,1,1,C,29.0,29.0,1704816831.42795,1704816831.92797,96.68501329422,1.0,,115.0,1.0,h,s,97.2016837596893,98.467808008194,1266.0,1704816831.94462,1704816833.22737,i,g,h,r,D0102,,115.0,
task,1,1,C,30.0,30.0,1704816834.52798,1704816835.02802,99.7850406169891,1.0,,115.0,1.0,h,h,100.301715373993,101.951112031937,1649.0,1704816835.04466,1704816836.71069,c,g,h,r,D0102,,115.0,
task,1,1,C,31.0,31.0,1704816838.02802,1704816838.52802,103.285076379776,1.0,,114.0,1.0,s,s,103.80174946785,104.967853069305,1166.0,1704816838.54469,1704816839.72738,c,g,s,r,D0102,,114.0,
task,1,1,C,32.0,32.0,1704816841.04472,1704816841.54475,106.301782369614,1.0,,114.0,1.0,s,h,106.818445682526,108.017935991287,1199.0,1704816841.56139,1704816842.77743,i,g,s,r,D0102,,114.0,
task,1,1,C,33.0,33.0,1704816844.09475,1704816844.59479,109.351812839508,1.0,,115.0,1.0,h,h,109.868474245071,110.93454003334,1066.0,1704816844.61142,1704816845.69418,c,g,h,r,D0102,,115.0,
task,1,1,C,34.0,34.0,1704816847.01144,1704816847.5115,112.268494367599,1.0,,114.0,1.0,s,s,112.785179138184,114.134719133377,1350.0,1704816847.52812,1704816848.89415,c,l,s,s,D0102,,114.0,
task,1,1,C,35.0,35.0,1704816850.21148,1704816850.71154,115.468537807465,1.0,,114.0,1.0,s,s,115.985199213028,117.301301002502,1316.0,1704816850.72814,1704816852.06082,c,l,s,r,D0102,,114.0,
task,1,1,C,36.0,36.0,1704816853.39484,1704816853.89485,118.651896953583,1.0,,115.0,1.0,h,h,119.168565034866,120.434926986694,1266.0,1704816853.91151,1704816855.19421,c,l,h,r,D0102,,115.0,
task,1,1,C,37.0,37.0,1704816856.5282,1704816857.02821,121.785257577896,1.0,,114.0,0.0,h,s,122.301924943924,123.551418066025,1249.0,1704816857.04487,1704816858.31096,i,l,s,r,D0102,,115.0,
task,1,1,C,38.0,38.0,1704816859.6449,1704816860.14493,124.901955842972,1.0,,114.0,1.0,s,s,125.418629407883,127.168334007263,1750.0,1704816860.16157,1704816861.92767,c,g,s,s,D0102,,114.0,
task,1,1,C,39.0,39.0,1704816863.2616,1704816863.76166,128.518658161163,1.0,,114.0,1.0,s,s,129.035327672958,130.601459980011,1566.0,1704816863.77827,1704816865.36102,c,g,s,r,D0102,,114.0,
task,1,1,C,40.0,40.0,1704816866.67829,1704816867.1783,131.93535399437,1.0,,114.0,1.0,s,h,132.452038526535,133.901709079742,1450.0,1704816867.19498,1704816868.66105,i,g,s,r,D0102,,114.0,
task,1,1,C,41.0,41.0,1704816869.995,1704816870.49502,135.252062082291,1.0,,115.0,1.0,h,h,135.768735170364,137.118142127991,1349.0,1704816870.51168,1704816871.87766,c,g,h,r,D0102,,115.0,
task,1,1,C,42.0,42.0,1704816873.2117,1704816873.71175,138.468758821487,1.0,,115.0,1.0,h,h,138.98543047905,140.551599025726,1566.0,1704816873.72837,1704816875.311,c,g,h,r,D0102,,115.0,
task,1,1,C,43.0,43.0,1704816876.64506,1704816877.14509,141.902116298676,1.0,,114.0,1.0,s,s,142.418792486191,144.151730060577,1733.0,1704816877.16173,1704816878.91106,c,g,s,r,D0102,,114.0,
task,1,1,C,44.0,44.0,1704816880.24509,1704816880.74511,145.502153396606,0.0,,114.0,0.0,s,s,146.01882314682,148.484977006912,,1704816880.76176,1704816883.24446,c,l,s,s,D0102,,,
task,1,1,C,45.0,45.0,1704816884.57847,1704816885.07849,149.835529088974,1.0,,115.0,1.0,h,h,150.352210521698,151.401584148407,1049.0,1704816885.09515,1704816886.16126,c,g,h,s,D0102,,115.0,
task,1,1,C,46.0,46.0,1704816887.49517,1704816887.99522,152.752233028412,1.0,,115.0,1.0,h,h,153.268898010254,154.485252141953,1216.0,1704816888.01184,1704816889.24459,c,g,h,r,D0102,,115.0,
task,1,1,C,47.0,47.0,1704816890.57854,1704816891.07858,155.835596323013,1.0,,115.0,1.0,h,h,156.35226225853,157.635020017624,1283.0,1704816891.0952,1704816892.39456,c,g,h,r,D0102,,115.0,
task,1,1,C,48.0,48.0,1704816893.72856,1704816894.2286,158.985615253448,1.0,,115.0,1.0,h,s,159.502295017242,160.485334157944,983.0,1704816894.24524,1704816895.24467,i,g,h,r,D0102,,115.0,
task,1,1,C,49.0,49.0,1704816896.57858,1704816897.07862,161.835643291473,1.0,,115.0,1.0,h,s,162.352316379547,163.251762151718,899.0,1704816897.09526,1704816898.01125,i,g,h,r,D0102,,115.0,
task,1,1,C,50.0,50.0,1704816899.36196,1704816899.86201,164.619016170502,1.0,,115.0,1.0,h,h,165.135679960251,166.168538093567,1033.0,1704816899.87862,1704816900.92803,c,g,h,r,D0102,,115.0,
task,1,1,C,51.0,51.0,1704816902.27865,1704816902.77867,167.535706281662,1.0,,114.0,1.0,s,h,168.052381038666,169.218509197235,1166.0,1704816902.79532,1704816903.97799,i,g,s,r,D0102,,114.0,
task,1,1,C,52.0,52.0,1704816905.32868,1704816905.8287,170.585738182068,1.0,,114.0,1.0,s,h,171.102402925491,172.25180721283,1149.0,1704816905.84534,1704816907.01142,i,g,s,r,D0102,,114.0,
task,1,1,C,53.0,53.0,1704816908.36204,1704816908.86207,173.619094371796,1.0,,114.0,0.0,h,s,174.135773420334,175.268754005432,1133.0,1704816908.87871,1704816910.02806,i,l,s,s,D0102,,115.0,
task,1,1,C,54.0,54.0,1704816911.37874,1704816911.87875,176.63579916954,1.0,,114.0,1.0,s,s,177.152461767197,178.668810129166,1516.0,1704816911.8954,1704816913.42816,c,l,s,r,D0102,,114.0,
task,1,1,C,55.0,55.0,1704816914.77876,1704816915.2788,180.035820007324,1.0,,114.0,1.0,s,s,180.552494764328,182.80199098587,2249.0,1704816915.29544,1704816917.56151,c,l,s,r,D0102,,114.0,
task,1,1,C,56.0,56.0,1704816918.91214,1704816919.41219,184.169196367264,1.0,,115.0,1.0,h,h,184.685869932175,185.668663978577,983.0,1704816919.42881,1704816920.42821,c,l,h,r,D0102,,115.0,
task,1,1,C,57.0,57.0,1704816921.77884,1704816922.27887,187.035899877548,1.0,,115.0,0.0,s,h,187.552567243576,189.051959037781,1499.0,1704816922.29551,1704816923.81157,i,l,h,r,D0102,,114.0,
task,1,1,C,58.0,58.0,1704816925.16221,1704816925.66222,190.419267654419,1.0,,114.0,1.0,s,s,190.935926437378,192.202378034592,1266.0,1704816925.67887,1704816926.96156,c,l,s,r,D0102,,114.0,
task,1,1,C,59.0,59.0,1704816928.3289,1704816928.82892,193.585956335068,1.0,,115.0,1.0,h,h,194.102628231049,195.152107000351,1049.0,1704816928.84557,1704816929.91163,c,l,h,r,D0102,,115.0,
task,1,1,C,60.0,60.0,1704816931.27893,1704816931.77896,196.5359852314,1.0,,115.0,1.0,h,h,197.052664995193,198.702363014221,1650.0,1704816931.79561,1704816933.46172,c,g,h,s,D0102,,115.0,
task,1,1,C,61.0,61.0,1704816934.82897,1704816935.32903,200.086026668549,1.0,,114.0,1.0,s,s,200.602690458298,201.985712051392,1383.0,1704816935.34563,1704816936.74494,c,g,s,r,D0102,,114.0,
task,1,1,C,62.0,62.0,1704816938.11233,1704816938.61236,203.369386672974,1.0,,115.0,1.0,h,h,203.886055469513,205.485514163971,1599.0,1704816938.629,1704816940.24502,c,g,h,r,D0102,,115.0,
task,1,1,C,63.0,63.0,1704816941.61236,1704816942.11243,206.869420528412,1.0,,115.0,1.0,h,h,207.386090278625,208.718985080719,1333.0,1704816942.12903,1704816943.47838,c,g,h,r,D0102,,115.0,
task,1,1,C,64.0,64.0,1704816944.84572,1704816945.34576,210.102781295776,1.0,,114.0,0.0,h,s,210.619455099106,212.085641145706,1466.0,1704816945.3624,1704816946.84504,i,l,s,s,D0102,,115.0,
task,1,1,C,65.0,65.0,1704816948.21242,1704816948.71243,213.469478845596,1.0,,115.0,1.0,h,h,213.986152887344,215.852187156677,1866.0,1704816948.72909,1704816950.61186,c,l,h,r,D0102,,115.0,
task,1,1,C,66.0,66.0,1704816951.97912,1704816952.47916,217.23618221283,1.0,,115.0,1.0,h,h,217.752854347229,218.552465200424,800.0,1704816952.4958,1704816953.31182,c,l,h,r,D0102,,115.0,
task,1,1,C,67.0,67.0,1704816954.67916,1704816955.17917,219.936222553253,1.0,,114.0,1.0,s,s,220.452885389328,221.602303028107,1149.0,1704816955.19583,1704816956.36187,c,l,s,r,D0102,,114.0,
task,1,1,C,68.0,68.0,1704816957.72918,1704816958.22921,222.986238002777,1.0,,115.0,1.0,s,h,223.502915859222,224.785681009293,1283.0,1704816958.24586,1704816959.5452,i,l,h,r,D0102,,115.0,
task,1,1,C,69.0,69.0,1704816960.92922,1704816961.42922,226.186274528503,1.0,,115.0,1.0,h,h,226.702940702438,228.335825204849,1633.0,1704816961.44588,1704816963.09531,c,g,h,s,D0102,,115.0,
task,1,1,C,70.0,70.0,1704816964.47925,1704816964.97928,229.736311435699,1.0,,115.0,1.0,h,h,230.2529733181,231.302339076996,1049.0,1704816964.99591,1704816966.06198,c,g,h,r,D0102,,115.0,
task,1,1,C,71.0,71.0,1704816967.44594,1704816967.94596,232.703002214432,1.0,,114.0,1.0,s,s,233.219674110413,234.469357013702,1250.0,1704816967.96262,1704816969.22868,c,l,s,s,D0102,,114.0,
task,1,1,C,72.0,72.0,1704816970.61265,1704816971.11267,235.869706869125,1.0,,114.0,1.0,h,s,236.386368274689,238.069462060928,1683.0,1704816971.12931,1704816972.82865,i,l,s,r,D0102,,114.0,
task,1,1,C,73.0,73.0,1704816974.21267,1704816974.7127,239.469731092453,1.0,,114.0,1.0,s,s,239.986404895782,241.135939121246,1150.0,1704816974.72935,1704816975.89542,c,g,s,s,D0102,,114.0,
task,1,1,C,74.0,74.0,1704816977.27938,1704816977.77942,242.536439657211,1.0,,115.0,1.0,h,h,243.053107023239,244.269188165665,1216.0,1704816977.79605,1704816979.02873,c,g,h,r,D0102,,115.0,
task,1,1,C,75.0,75.0,1704816980.41273,1704816980.91275,245.6697909832,1.0,,114.0,1.0,s,s,246.18647313118,247.219214200974,1033.0,1704816980.92941,1704816981.97873,c,g,s,r,D0102,,114.0,
task,1,1,C,76.0,76.0,1704816983.36276,1704816983.86278,248.619819402695,1.0,,115.0,1.0,h,s,249.13649892807,250.302821159363,1166.0,1704816983.87944,1704816985.06218,i,g,h,r,D0102,,115.0,
task,1,1,C,77.0,77.0,1704816986.4628,1704816986.96282,251.719855308533,1.0,,114.0,1.0,s,s,252.236523389816,253.369557142258,1133.0,1704816986.97946,1704816988.12889,c,l,s,s,D0102,,114.0,
task,1,1,C,78.0,78.0,1704816989.52949,1704816990.0295,254.786545753479,1.0,,114.0,1.0,s,s,255.303219079971,256.46953701973,1166.0,1704816990.04616,1704816991.22891,c,g,s,s,D0102,,114.0,
task,1,1,C,79.0,79.0,1704816992.62952,1704816993.12954,257.886576414108,1.0,,114.0,1.0,s,s,258.403248786926,259.436021089554,1033.0,1704816993.14619,1704816994.19551,c,g,s,r,D0102,,114.0,
task,1,1,C,80.0,80.0,1704816995.59622,1704816996.09624,260.853278160095,1.0,,115.0,0.0,s,h,261.36994767189,262.336309194565,966.0,1704816996.11289,1704816997.09565,i,l,h,s,D0102,,114.0,
task,1,1,C,81.0,81.0,1704816998.49624,1704816998.99629,263.753297328949,1.0,,115.0,0.0,s,h,264.269971847534,265.669548988342,1400.0,1704816999.01291,1704817000.42903,i,l,h,r,D0102,,114.0,
